time,LShank_ACCX,LShank_ACCY,LShank_ACCZ,LShank_GYROX,LShank_GYROY,LShank_GYROZ,RShank_ACCX,RShank_ACCY,RShank_ACCZ,RShank_GYROX,RShank_GYROY,RShank_GYROZ,LAThigh_ACCX,LAThigh_ACCY,LAThigh_ACCZ,LAThigh_GYROX,LAThigh_GYROY,LAThigh_GYROZ,RAThigh_ACCX,RAThigh_ACCY,RAThigh_ACCZ,RAThigh_GYROX,RAThigh_GYROY,RAThigh_GYROZ,LPThigh_ACCX,LPThigh_ACCY,LPThigh_ACCZ,LPThigh_GYROX,LPThigh_GYROY,LPThigh_GYROZ,RPThigh_ACCX,RPThigh_ACCY,RPThigh_ACCZ,RPThigh_GYROX,RPThigh_GYROY,RPThigh_GYROZ,LPelvis_ACCX,LPelvis_ACCY,LPelvis_ACCZ,LPelvis_GYROX,LPelvis_GYROY,LPelvis_GYROZ,RPelvis_ACCX,RPelvis_ACCY,RPelvis_ACCZ,RPelvis_GYROX,RPelvis_GYROY,RPelvis_GYROZ
35,-5.24797201156616,-10.0969924926758,-3.33027744293213,226.985204158554,123.020326650662,-304.825195487416,0.810996472835541,-10.815411567688,-3.498042345047,-24.8932545150624,27.7808211470701,-28.4815131785488,1.67940592765808,-3.26742887496948,0.801735758781433,-3.97089738673475,74.3232566988165,10.1651716124704,-0.277268409729004,-9.15669631958008,-1.083979845047,-77.5868030465187,19.0008229973357,-25.9967552452953,0.418588697910309,-7.49252939224243,2.41307020187378,42.4823286373753,75.6624382290026,-26.2215128652183,2.84530544281006,-10.6241865158081,0.656424403190613,96.5107573873878,12.2233893546985,26.4397903431663,1.84977507591248,-7.24822044372559,3.04107093811035,-27.5999065114294,15.2673818328515,-0.2469388193352,-0.287223637104034,-8.72719955444336,2.69804620742798,-9.38599643856004,12.5208167722959,-18.1806470516114
35.005,-5.42107772827148,-11.0174741744995,-3.7346510887146,233.605009841752,127.025522259201,-306.641288146209,0.472061097621918,-10.9349546432495,-3.3248188495636,-22.8259577438801,34.3826361119943,-28.0980970943956,1.42639446258545,-3.35401129722595,0.693054676055908,-13.4380104325383,82.5373992890248,14.7572776924256,0.0102786468341947,-9.34761714935303,-0.658162295818329,-76.6197643732607,23.0311229661689,-25.3550179916376,0.0377858243882656,-7.6857795715332,2.83256936073303,45.0959346742265,77.0240432702338,-29.7963211786817,2.8542332649231,-10.7710084915161,0.875341355800629,100.936897554474,11.1401187910135,24.0979336277278,1.99073767662048,-7.30397605895996,3.17258858680725,-27.9625178393708,18.4664085061064,1.06190573196116,-0.36653271317482,-8.95785331726074,2.69985938072205,-6.96548113020554,11.1830448223998,-19.6097633901463
35.01,-5.30764818191528,-11.8185863494873,-4.41517734527588,239.341467159592,128.266690574797,-307.584974402695,-0.113147296011448,-10.8630304336548,-3.03557848930359,-21.2807264819076,38.1733706107839,-28.0117976542325,1.17246830463409,-3.44116735458374,0.551966428756714,-23.3952318130858,86.5042092344281,18.154065662909,0.0594245158135891,-9.432204246521,-0.322428375482559,-76.0288573874063,28.2003279507977,-25.0188514486152,-0.389161437749863,-7.9225926399231,3.67847323417664,50.4797322497461,83.9984177336255,-34.3159256543708,2.74890184402466,-10.7459306716919,1.15512669086456,106.098184642308,12.4031804242208,22.5492257994678,2.1449716091156,-7.31062746047974,3.30769276618958,-27.617393503252,21.6451017062022,1.94322851934318,-0.408197820186615,-9.15911293029785,2.7302417755127,-4.35221873724693,10.4102772197045,-21.1848101353932
35.015,-4.81294918060303,-12.3608913421631,-4.96062898635864,244.314391290495,125.982347467265,-307.576341043584,-0.777551054954529,-10.7301464080811,-2.76455020904541,-20.3419818672865,40.1114094670183,-28.1202695959887,0.96635627746582,-3.53043746948242,0.413414746522903,-33.6155512266886,87.370126957024,21.0387448324451,0.0595150925219059,-9.42794990539551,-0.170572385191917,-76.2389813270325,35.0758627467102,-24.5847451155367,-0.97243469953537,-8.09378433227539,4.7434139251709,56.8930339935779,99.1922418442106,-38.3373361319992,2.57598662376404,-10.5971593856812,1.49802196025848,110.666099045997,15.0704162526613,21.8058638686968,2.31557679176331,-7.28350257873535,3.48941540718079,-26.6955177483335,25.5020702569207,2.81403751115843,-0.419212311506271,-9.3458080291748,2.76430296897888,-1.85304782418421,9.80732690279603,-22.6672190249271
35.02,-3.92821455001831,-12.6595106124878,-5.20877075195313,248.662435074612,119.815929741172,-306.441655377148,-1.4915417432785,-10.559814453125,-2.51017713546753,-19.9467444332273,40.5924562751678,-28.4451782797116,0.807566106319427,-3.6282958984375,0.298313200473785,-45.0817210505637,85.2632799754527,23.7875544639168,0.0431431159377098,-9.32996559143066,-0.236424416303635,-77.257505966254,43.1906055939273,-24.0908951177881,-1.69511699676514,-8.18545055389404,5.72846269607544,61.4033938082255,122.014062201001,-41.6995889584918,2.36181831359863,-10.3328685760498,1.86819446086884,114.190893299263,18.9428432290188,21.9177867635312,2.51508784294128,-7.23055267333984,3.72487115859985,-25.1842598472927,29.817624538703,3.66253014052114,-0.405370831489563,-9.5141077041626,2.7931010723114,0.54997889152218,9.23105274346465,-24.0621417289296
35.025,-2.62692999839783,-12.7869882583618,-4.81015396118164,252.688585703525,108.654198524078,-303.602154493877,-2.23424887657166,-10.3695688247681,-2.22063279151917,-19.9305090735701,40.286696026783,-29.1064515819429,0.681248009204865,-3.75379681587219,0.256926208734512,-60.8484545985403,79.8692268708943,27.2342181832669,0.0347741656005383,-9.10915470123291,-0.604083716869354,-79.024865225319,51.0919835767569,-23.7897093885999,-2.48060274124146,-8.18961811065674,5.8321475982666,55.9400791703886,150.488874963974,-44.3992212279393,2.16227221488953,-9.94879722595215,2.16306829452515,115.752404317122,23.8937656130578,23.103581027979,2.78147101402283,-7.16698455810547,4.02399444580078,-22.9456704694629,33.7403148771626,4.30070203543211,-0.378727674484253,-9.64580345153809,2.79919791221619,3.01190595697958,8.4111730571956,-25.4633686975361
35.03,-1.53453087806702,-13.1061229705811,-4.19145679473877,254.852826764691,100.073056209386,-298.996503295024,-3.05214047431946,-10.0917196273804,-1.84584736824036,-19.8316455004288,39.875651827437,-30.2992280072697,0.501505851745605,-3.91996693611145,0.285648584365845,-77.2268247565023,71.4004821491847,30.2881426102468,-0.0468593426048756,-8.92302131652832,-1.18638157844543,-81.2163382507068,57.1824564294681,-24.3498070986558,-2.18497800827026,-8.5254545211792,3.7063467502594,30.0078145712366,161.754138188508,-46.7632521525183,2.00617003440857,-9.57151699066162,2.25000619888306,114.854808177155,29.3990534708917,25.0445158844215,3.08913660049438,-7.08331155776978,4.37220907211304,-20.1399995131509,37.0084203761357,4.68587475886252,-0.3127361536026,-9.70445919036865,2.79354071617126,6.77940073711818,7.4090545323605,-27.221112757797
35.035,-0.692440509796143,-13.4495506286621,-3.73549056053162,256.260064299768,96.945013984628,-293.123770042864,-3.6604962348938,-9.78245162963867,-1.51310062408447,-19.923654978738,38.4843832746404,-32.0514003407152,0.297283828258514,-4.09336090087891,0.370131224393845,-93.3331894609578,61.1674176025907,32.9924638045596,-0.191231787204742,-8.82959938049316,-1.7931045293808,-83.6791063899274,62.617733140762,-25.8471126307695,-0.799334347248077,-9.10471820831299,0.182152912020683,-1.52422202697228,156.48500241368,-46.9797691492077,1.89597713947296,-9.23286056518555,2.13244581222534,111.973117215381,35.1706111308766,27.1581247532711,3.41959571838379,-6.99495506286621,4.73504829406738,-17.1166897015783,39.7000408336868,4.90942087398151,-0.233975112438202,-9.70769596099854,2.784991979599,10.9237810867899,6.54504584763764,-28.9126039831088
35.04,-0.0964799299836159,-13.762885093689,-3.49387836456299,256.803282904837,99.4754419777668,-286.067173762243,-4.02679538726807,-9.458984375,-1.23994541168213,-20.411885438347,35.7964613645249,-34.3480446189428,0.088511124253273,-4.26017189025879,0.503499269485474,-108.670707091302,49.3894633034828,35.3172996885864,-0.381060361862183,-8.84760761260986,-2.34268355369568,-86.0909554688856,67.2462244921995,-28.269850738812,1.34528851509094,-9.75560188293457,-4.32463788986206,-31.338878421594,138.715350042543,-43.7600760310716,1.84401142597198,-8.94512367248535,1.80391705036163,107.168605058843,41.0739914418428,29.1758326435319,3.75953412055969,-6.90779590606689,5.09236240386963,-14.0025665485749,41.821767382365,4.9749919706741,-0.153004497289658,-9.66845703125,2.77611637115479,15.1896491574549,5.87840700492653,-30.4542596410507
35.045,0.31427788734436,-13.9596881866455,-3.32471680641174,254.877634011757,105.750213824852,-277.715928784825,-4.28399467468262,-9.14547634124756,-0.981014490127563,-21.9811060322318,31.2101908274418,-37.0916223255102,-0.0607531368732452,-4.38941526412964,0.66801929473877,-121.80438905386,35.7802601558136,37.0800656454346,-0.546217679977417,-9.00637817382813,-2.64467597007751,-87.1010448244821,69.2048290480249,-31.4871584133804,2.69513058662415,-9.76457500457764,-8.70473384857178,-40.1586231496561,126.594851511275,-32.9021857792049,1.90529477596283,-8.73384284973145,1.23078465461731,100.252314524153,46.7698603605403,30.426754469263,4.06531000137329,-6.83384943008423,5.38458824157715,-11.0400334677844,43.3262326602762,4.80825894218445,-0.092525340616703,-9.62953758239746,2.77002000808716,19.3138334915245,5.36533215909846,-31.8787980452944
35.05,0.377115666866302,-14.2231416702271,-3.34766411781311,250.685591748283,113.066234350528,-268.390917397817,-4.52585124969482,-8.90552711486816,-0.811703503131866,-23.9524574285957,27.4483975477129,-40.3114315568622,0.0243203490972519,-4.50817346572876,0.929007351398468,-131.892605778725,22.1393546851118,38.0062324666991,-0.760267972946167,-9.29300594329834,-2.6157534122467,-86.201652344764,70.054286014721,-34.5905436552349,1.65952336788177,-9.06038665771484,-12.0394649505615,-27.4632890676508,129.798073628228,-18.8599332702313,2.08132338523865,-8.59131908416748,0.410060882568359,92.3131416895514,50.6767763771118,30.5343675147312,4.29854869842529,-6.78617334365845,5.611403465271,-7.98025471491221,44.4758457051431,4.36078123314518,0.0484832115471363,-9.57031154632568,2.80524682998657,23.587071336304,5.11536303028844,-33.1013506803079
35.055,0.160354658961296,-14.5349769592285,-3.64187169075012,244.606887311512,121.586492358958,-258.192843910341,-4.72282218933105,-8.73336601257324,-0.722886025905609,-26.1916461555251,24.4978565715577,-43.8692190389139,0.356578230857849,-4.71082019805908,1.28480088710785,-139.335476577667,9.82403183795859,38.0978389638473,-0.978896915912628,-9.61151885986328,-2.35585641860962,-83.4880659988422,70.7040555708427,-37.2298038826087,-0.376279026269913,-8.17185306549072,-14.507926940918,-0.353088896980057,135.57582626979,-7.03409635683384,2.31653475761414,-8.51926898956299,-0.568596541881561,84.7595466939751,52.9059076504884,30.0068959107932,4.47022676467896,-6.74076747894287,5.76923656463623,-4.77522217094275,45.3548534852833,3.70448415061112,0.269960522651672,-9.50343322753906,2.86554336547852,28.0316069103728,5.2667896048481,-34.2634971223018
35.06,-0.287804126739502,-14.8658685684204,-4.20589637756348,236.447379404475,131.101451306784,-247.09938726419,-4.86217164993286,-8.62802124023438,-0.705118954181671,-28.6211956697175,22.3817649289447,-47.7259570707479,0.935429453849792,-5.06140041351318,1.73766767978668,-144.081228616775,-0.351508988847668,37.2922113210551,-1.18293297290802,-9.93076133728027,-1.90219950675964,-78.9496921633138,71.5825340113222,-39.180369305781,-2.80602693557739,-7.28150033950806,-16.125020980835,37.682139990582,138.912073151018,0.18888522627828,2.58230805397034,-8.52562427520752,-1.65677237510681,78.2735512468068,53.5126572601227,29.008209556016,4.58126258850098,-6.68770980834961,5.84618186950684,-1.4458827454,45.9863010589564,2.84261374198529,0.563190579414368,-9.4319314956665,2.9448356628418,32.5539076032368,5.94897694631792,-35.4350623951612
35.065,-0.699736714363098,-15.0193367004395,-4.74270534515381,224.081062364978,139.185649548033,-234.872966159273,-4.9344801902771,-8.58063697814941,-0.687831521034241,-30.923630240814,21.119269347665,-51.8651200096673,1.65902173519135,-5.79177474975586,2.2866222858429,-145.276634664932,-5.93757650681953,35.2910410263223,-1.33972299098969,-10.2574443817139,-1.33540630340576,-72.6934711100139,73.6659192930945,-39.7247968543335,-4.33912420272827,-6.4413914680481,-16.7340202331543,74.6455938163169,134.095628654,-0.876260656711686,2.78768038749695,-8.6514892578125,-2.67422151565552,74.3416982095756,53.0540783592481,27.6104403706769,4.62419652938843,-6.61304235458374,5.77407169342041,1.67186777166122,46.3905048238486,1.65554842202165,0.838494718074799,-9.34716510772705,3.03295874595642,36.3016972876199,7.71619789405222,-36.8004957574222
35.07,-0.729416608810425,-14.5874242782593,-4.7408652305603,209.151252386571,140.796331097727,-222.480516816012,-4.88763046264648,-8.57226467132568,-0.734939634799957,-32.981071049024,20.388493747987,-56.0425559136009,2.24613213539124,-6.79767751693726,2.9608166217804,-144.547115820061,-8.14808526942411,32.3430425880856,-1.54426407814026,-10.657657623291,-0.818539679050446,-66.0089767051867,76.3470144291346,-39.1452245674067,-5.13790607452393,-5.95453310012817,-16.1333465576172,92.5667397832448,129.085944444984,-3.49485070394461,2.90962362289429,-8.82565498352051,-3.54365944862366,71.4215806035308,52.9350076714472,25.5194308902435,4.57034015655518,-6.54908037185669,5.59527206420898,4.07479182108664,46.7781863611385,0.211357269019136,1.07355487346649,-9.24753379821777,3.15219259262085,39.2069763076928,10.5396853988142,-38.0452362619545
35.075,-0.578542709350586,-13.6782102584839,-4.31149387359619,192.746667962574,136.443834030272,-209.76919326116,-4.73844718933105,-8.62411785125732,-0.780634582042694,-35.2097720204829,19.8576053419167,-60.1414753779306,2.71196460723877,-7.9666166305542,3.72714519500732,-142.595484887379,-8.57738571064786,28.6574144553387,-1.78367567062378,-11.0481586456299,-0.385505557060242,-58.5179394122186,78.8248021543401,-37.6943626141017,-5.55500030517578,-5.85208988189697,-14.5945425033569,97.5634534630268,123.689685189323,-5.18545998107982,2.98884201049805,-9.02159404754639,-4.2570219039917,69.8320043383721,53.7750184865213,23.1718709668481,4.45303916931152,-6.50582265853882,5.39076375961304,5.69232831938646,47.2613505279307,-1.39312764491129,1.2859947681427,-9.12824726104736,3.26513504981995,41.3815685205468,14.1609168005188,-39.1112136404346
35.08,-0.370684266090393,-12.3538494110107,-3.52817368507385,175.399312527441,126.3357551153,-196.592009823778,-4.49916982650757,-8.75179481506348,-0.786309003829956,-37.8235556422525,19.4626633135391,-64.0863467557198,3.05935144424438,-9.23408126831055,4.55859756469727,-139.749754871585,-8.01106996712636,24.355249051877,-2.04888463020325,-11.3700046539307,-0.0650306642055511,-49.9350861351401,80.602522810376,-35.4511406604674,-5.74176692962646,-6.17277908325195,-12.2651252746582,93.0019526069688,117.365039300918,-4.53155687984984,3.04478216171265,-9.22580909729004,-4.79137754440308,69.7094912352296,55.9830376451734,20.782515408374,4.28584671020508,-6.48966455459595,5.20619487762451,6.4129316329562,47.8878393842663,-3.11412400677706,1.48557209968567,-8.98746109008789,3.34742832183838,42.8394143422781,18.4547510807405,-39.9592089466484
35.085,-0.594502806663513,-11.183669090271,-3.08731365203857,157.817326433939,115.32383726746,-182.073377233405,-4.33263635635376,-8.97434711456299,-0.683626234531403,-40.54524259253,21.0052581224919,-67.7055956950179,3.31610488891602,-10.3445014953613,5.19134902954102,-136.459406861579,-7.22468382099976,20.3664988313123,-2.26407694816589,-11.3627328872681,0.0317429602146149,-39.5255841419064,80.5516037501136,-32.3067742835928,-5.45440673828125,-6.93302297592163,-10.1587696075439,94.2789452647619,102.582583823665,-0.537105105514617,3.08352565765381,-9.42553615570068,-4.96664905548096,69.1524824782259,60.0747580901179,18.3249091846186,4.05938816070557,-6.5000319480896,5.11961078643799,5.68449195797434,48.3592283049293,-4.92315723817606,1.70312261581421,-8.85713195800781,3.32223987579346,43.4995862765057,22.8268149326209,-40.613578635176
35.09,-1.13153862953186,-10.1079454421997,-3.42563605308533,138.992109307712,109.11057810404,-166.788889191778,-4.23868465423584,-9.18276596069336,-0.60456371307373,-43.0058250712163,23.3083159483501,-71.1683171891068,3.65414524078369,-11.6615877151489,5.58432626724243,-132.346335245289,-5.79708250380013,16.559484576636,-2.4642345905304,-11.2472324371338,0.0209885220974684,-29.6399166768776,80.0726094138098,-28.7449330842687,-4.23678922653198,-7.68893337249756,-9.42547988891602,103.300716743189,84.0928997404143,3.73051400153803,3.17141580581665,-9.5876350402832,-4.8783483505249,66.9384220172529,65.1214209433002,15.9654288735741,3.72336506843567,-6.57991743087769,5.06823205947876,4.47610086643121,48.5452348465963,-6.47519521054322,1.91220474243164,-8.69713687896729,3.21409583091736,43.1885565371762,26.6183468559961,-41.0239124948483
35.095,-1.87370991706848,-9.00832557678223,-4.39789009094238,118.552495008882,105.392967610504,-150.803992571522,-4.17100095748901,-9.37907791137695,-0.524420380592346,-45.3415516918747,25.4683137544952,-74.558297168535,4.12131309509277,-13.5285654067993,5.84643507003784,-126.874137946437,-3.04400976706935,12.2137912313673,-2.71817684173584,-11.0981731414795,-0.105466850101948,-20.740373141195,79.6351084767138,-25.0373971197591,-2.4832444190979,-8.32199573516846,-9.84860420227051,113.303405839268,65.3608463944659,8.69078819521123,3.30561280250549,-9.71909236907959,-4.58731937408447,63.4292484066188,70.6766938330276,13.8291847578151,3.31978845596313,-6.75545787811279,5.07867050170898,2.95136038541224,48.4626032180175,-7.83398536006274,2.08312034606934,-8.52038478851318,3.06183576583862,41.6477546528806,29.9146405456738,-41.1784728455765
35.1,-2.74755144119263,-7.78914976119995,-5.92728137969971,96.1042176977994,102.490792911409,-134.127921788395,-4.09433221817017,-9.5641565322876,-0.423469871282578,-47.6532053108035,26.7573582810787,-77.9377518264522,4.76359081268311,-16.2522792816162,6.05634498596191,-119.53269545667,1.66029924547621,6.72304868825782,-3.08397054672241,-10.9729318618774,-0.361211806535721,-13.2552644524264,79.6154102111475,-21.3915582540221,-0.474814176559448,-8.73036193847656,-11.3265075683594,118.963576774268,49.1293389640374,14.7200036425775,3.48669123649597,-9.82359218597412,-4.12957715988159,58.8337536990616,76.4164569624261,12.0294205200066,2.87796068191528,-7.05331182479858,5.17589282989502,1.22111658774051,48.1082290982151,-9.03843543245477,2.18989586830139,-8.33612251281738,2.89367175102234,38.5960876034214,32.7532603345419,-41.0522475346201
35.105,-3.09761714935303,-7.1880669593811,-7.33907461166382,79.7523486738171,93.5256915125254,-120.43981288034,-3.9810106754303,-9.78734397888184,-0.295322299003601,-49.4853864801865,26.4585699482892,-80.8145728633483,4.99088144302368,-19.6091766357422,6.39739751815796,-106.90216620951,10.5651696883812,0.991427571236738,-3.55308055877686,-10.991849899292,-0.761655747890472,-7.68924596758735,80.2813331646562,-18.3294376000383,0.561553657054901,-8.77165508270264,-13.0266075134277,102.022590273994,42.7386383161692,24.3695770812084,3.67531800270081,-9.9159049987793,-3.53032040596008,54.7918355784502,81.4288869074884,10.9812998173378,2.39102435112,-7.54979562759399,5.39607763290405,-0.974717726875714,47.0404314743212,-11.0466416758064,2.19817280769348,-8.17396068572998,2.71614098548889,33.4864025947674,34.9514064547488,-40.0307790838663
35.11,-2.85047888755798,-6.8373441696167,-8.14681625366211,67.8201106466423,78.3054550604199,-107.222891402366,-3.93786072731018,-9.96057891845703,-0.221207648515701,-51.2204696803285,25.4830037838526,-83.7862652278157,4.56007385253906,-22.3526420593262,7.05219078063965,-86.0674391275733,21.8753388453869,-4.72367942903172,-4.03348636627197,-10.9555521011353,-1.17410433292389,-2.90308909067023,81.1776247384911,-15.7701657180345,0.947632968425751,-8.6971960067749,-14.2971134185791,75.1006961509041,41.13198999318,33.2220230474691,3.82717514038086,-9.96902370452881,-2.97847032546997,52.013092642941,85.5906782631281,10.2741925306812,1.89036846160889,-8.17728900909424,5.68797397613525,-2.05190259201019,45.903362071865,-13.1346629484779,2.13231635093689,-8.03497314453125,2.53464794158936,27.5455740641293,36.7197219402976,-38.3686662097221
35.115,-2.05858516693115,-6.59957551956177,-8.03726959228516,56.6423421453764,54.9026075864095,-91.8394339196651,-3.97585010528564,-10.0963840484619,-0.207211405038834,-53.0307703387054,23.774035812002,-87.2944143100744,3.65851402282715,-23.8946895599365,8.04862976074219,-57.3779057076626,35.3582705783227,-10.7060952739787,-4.47216892242432,-10.8676137924194,-1.56695866584778,1.19246437105913,82.0287414411556,-13.6856184503296,0.884350001811981,-8.53334140777588,-15.2136535644531,44.9799990432547,42.0495815119416,39.9774831177727,3.93052935600281,-9.98163795471191,-2.47629427909851,50.1448856407808,88.671462409019,9.74758238435228,1.37433230876923,-8.90735626220703,6.02118396759033,-1.60774371457732,44.8068264270382,-15.2385533119122,1.978111743927,-7.93015432357788,2.35988926887512,21.3625794689211,37.9928726166826,-36.2834231164955
35.12,-0.745928466320038,-6.31081247329712,-6.54632091522217,41.6721691640688,20.2660216259795,-70.8087487104406,-4.11500120162964,-10.207612991333,-0.265603989362717,-55.1385735467605,21.2041105424403,-91.935083888802,2.48537421226501,-23.4041595458984,9.44805717468262,-20.6683214756405,50.8889391282053,-17.3329795944778,-4.79930686950684,-10.7285528182983,-1.899010181427,4.65643835108706,82.4850322286583,-12.0769748583292,0.589584231376648,-8.3063325881958,-15.8440179824829,19.9355360927993,42.8463401540965,42.8414873046912,3.96690821647644,-9.94898700714111,-2.03046178817749,48.8141837904493,90.298611544802,9.21367930353708,0.839646458625793,-9.71215724945068,6.3606915473938,0.98073448320426,43.8919055122421,-17.279191854764,1.71090316772461,-7.87595081329346,2.20582365989685,15.6587892383337,38.6506813054573,-34.0158003120513
35.125,0.144732534885406,-5.78633260726929,-4.14188671112061,21.4689921086426,-17.871666369033,-45.1775725102811,-4.20205020904541,-10.2929239273071,-0.51580810546875,-56.9702561123341,17.8826988320898,-96.806852918097,1.71590495109558,-20.0434246063232,10.7846651077271,16.0645622391877,66.183105547887,-24.0049952436914,-4.89860486984253,-10.6617307662964,-2.11234498023987,6.67470631685976,81.7145390789566,-11.3111142844321,0.117255218327045,-7.94513607025146,-16.059024810791,5.90277882743243,40.29169914035,41.6610222953433,3.90219259262085,-9.87106037139893,-1.45044696331024,47.3316297593955,89.3291549845779,8.66436902350162,0.319990873336792,-10.4763603210449,6.52385377883911,6.30118376171927,44.0002391426676,-19.2164298713182,1.2822904586792,-7.90685224533081,2.10981893539429,10.0538019629588,38.4624037258913,-31.4191092386796
35.13,0.413353800773621,-5.13732671737671,-2.75597453117371,-1.34402765612389,-48.4741052565798,-17.1138261447688,-4.14982175827026,-10.4007177352905,-0.771625638008118,-58.7908396205064,14.9505583855586,-101.456517855962,1.25536894798279,-16.0113124847412,11.5742721557617,45.7178370585345,77.4786879821465,-29.363171072087,-4.84714126586914,-10.7221965789795,-2.17427515983582,7.97134131804534,79.5313920541671,-10.9856873601059,-0.719230890274048,-7.44422435760498,-15.4323778152466,-7.3561905757319,36.6630347852811,39.2831260867492,3.75952982902527,-9.79621124267578,-0.929080426692963,45.88558650455,86.9076958294574,8.19069540456124,-0.0997119396924973,-11.1820421218872,6.55528116226196,13.1050387105002,45.1477519043648,-20.9668280631268,0.848361372947693,-7.96444129943848,2.0546875,2.90252005053501,37.7563875619546,-27.7586759662337
35.135,0.064748503267765,-4.48374032974243,-2.56227588653564,-26.1279580566094,-69.1747079137851,12.3239664515479,-3.94763731956482,-10.5473737716675,-1.00569844245911,-60.5361237081739,12.7559673788147,-105.862877795212,1.00167453289032,-11.9036149978638,11.7724161148071,66.601802974198,83.9607355799746,-33.2955124678438,-4.63342952728271,-10.8718738555908,-2.07467985153198,8.79649988676916,75.673865135484,-10.904619844847,-2.01610040664673,-6.82152462005615,-14.007173538208,-19.5209999592401,32.873703890366,36.3733493871079,3.55605697631836,-9.73163986206055,-0.49274268746376,44.4309781924853,83.4581975816017,7.84558216749977,-0.378297835588455,-11.7949066162109,6.46446514129639,21.12856865022,47.2804818877959,-22.4237296112053,0.407815247774124,-8.05409336090088,2.04077434539795,-5.21969331608674,36.5348287194654,-23.1817371751041
35.14,-0.935877561569214,-4.04065608978271,-3.81201887130737,-52.1557787097972,-75.6088417345855,41.5030161141788,-3.56865549087524,-10.76291847229,-1.18350076675415,-62.0486349489274,11.9163689364118,-110.007832734547,0.793129503726959,-8.60980129241943,11.2835578918457,75.3395068850444,83.9744369394496,-35.5827823114356,-4.21051502227783,-11.0422172546387,-1.78082180023193,9.49832060700819,69.4893883892259,-10.7644746083621,-3.98449683189392,-6.0987663269043,-11.8258771896362,-28.7917779366912,30.3976612784934,33.8370679218504,3.31540703773499,-9.68698406219482,-0.180069908499718,42.8616944193507,79.5552977162622,7.73325543773068,-0.431856364011765,-12.2420883178711,6.25182676315308,30.1318952027936,50.3981968665291,-23.362950631521,-0.0589392967522144,-8.19552135467529,2.07488179206848,-13.1517128081935,34.7130738338504,-17.9481354594331
35.145,-1.86663961410522,-4.14632225036621,-5.52428531646729,-77.0975975774057,-71.5366897816131,67.3383569139138,-3.2047393321991,-10.9688892364502,-1.31931161880493,-63.4642326355476,12.1857669652028,-113.73064783223,0.365450590848923,-6.73563766479492,10.4579610824585,72.6378870305484,76.7637447609646,-37.3979494795961,-3.59058046340942,-11.1609125137329,-1.39062750339508,10.2397717923589,62.0989666129212,-10.0677159120717,-5.92937803268433,-5.54282474517822,-10.0800724029541,-35.2076239259889,27.9746687459043,31.8260758150911,3.03088426589966,-9.66254806518555,-0.0423151813447475,40.2562982698818,75.6284033963684,7.95133910906096,-0.196229547262192,-12.4111337661743,6.030189037323,38.7797752958652,53.7931458085785,-23.4891605745518,-0.719186663627625,-8.45105171203613,2.17471790313721,-20.0518490917227,32.0126048662295,-12.7301612165831
35.15,-1.88180983066559,-4.99309682846069,-6.75418472290039,-99.7307681093202,-65.1850168346622,88.954853787872,-2.88340854644775,-11.1727466583252,-1.45156228542328,-64.8524890749202,13.3829633766963,-116.986797085061,-0.234836876392365,-5.6638298034668,9.55722808837891,65.9020910748652,63.6670551029511,-39.5135527636834,-2.97286915779114,-11.2814264297485,-1.07812142372131,11.1263960871973,55.1191621491393,-8.93902202908524,-7.26992273330688,-5.13132095336914,-9.16995143890381,-40.036871612606,22.3991733735918,29.646019450901,2.73863315582275,-9.66686916351318,0.0465464219450951,36.5637135894653,71.8007448949258,8.31569981920352,0.159017279744148,-12.3753471374512,5.89509057998657,45.9256489791267,56.1735589418817,-22.9466420638723,-1.32384943962097,-8.77063751220703,2.31847429275513,-26.05516531553,28.5532950516311,-7.81773207115904
35.155,-0.743139803409576,-6.76291036605835,-6.9803581237793,-118.625659995271,-59.3775870211564,105.467840144186,-2.60033655166626,-11.4029102325439,-1.58658826351166,-66.1234233549195,15.5641040334171,-119.844643856443,-0.921209931373596,-5.218421459198,8.64578723907471,57.3424638560594,45.7927403280674,-41.8412061007429,-2.44519472122192,-11.4333181381226,-0.89952951669693,12.2398688936185,49.121426189884,-7.46699075822149,-7.84103584289551,-4.90540170669556,-9.01823139190674,-44.1657687772029,12.0671718293229,27.1876875195462,2.43875193595886,-9.7111291885376,0.117980822920799,31.7299443176177,68.1134194601702,8.77039575753502,0.594778478145599,-12.1425733566284,5.85910034179688,50.9608678503547,56.9039315603987,-21.6668131700264,-1.8237715959549,-9.14473628997803,2.51385760307312,-31.2816585118223,24.4640488427134,-3.30628177412184
35.16,2.03981447219849,-9.9989767074585,-4.93847417831421,-129.728077849613,-59.3869307199409,114.158033259166,-2.33640599250793,-11.7417249679565,-1.72909843921661,-66.9793006994354,19.0478659252442,-122.482968347901,-1.46670997142792,-5.16895532608032,7.81496715545654,50.5304600647118,25.4441007338875,-43.8621361327446,-2.19874930381775,-11.6859912872314,-0.967310011386871,13.8000318028902,45.2695649131174,-5.83281506532987,-7.30369901657104,-5.0097713470459,-9.32351207733154,-49.6476376239201,-6.95427535109849,24.3605902598079,2.11769199371338,-9.82837677001953,0.21611376106739,25.5127373048569,64.6539491361262,9.22785109229121,1.0662716627121,-11.6910800933838,5.93304967880249,52.3398625532128,54.4552404410574,-19.330678445565,-2.15700531005859,-9.56874942779541,2.79590916633606,-35.9606693574557,20.018978806342,0.595535826399342
35.165,5.87814140319824,-14.1853475570679,-0.420382678508759,-128.864837561172,-66.1796221514103,113.60268423813,-2.26128959655762,-12.2338333129883,-1.75664734840393,-67.8953110294042,22.2629315902176,-125.159760464764,-1.87386810779572,-5.29299116134644,6.59408140182495,44.1948278170267,1.12995255878447,-44.875937696155,-2.31474256515503,-12.0331401824951,-1.22866988182068,15.997062894715,43.8690209634279,-4.57476380276569,-5.96830081939697,-5.95012760162354,-8.62235260009766,-56.3638275215908,-29.9720107196073,21.7766562722585,1.80428898334503,-10.0832471847534,0.225557163357735,19.4090394983653,61.9418381110651,9.33776164264141,1.48363351821899,-11.2154064178467,6.03482246398926,48.7597813337102,48.4012066475682,-16.1665967276512,-2.39716982841492,-9.98581504821777,3.24110388755798,-40.6959336410935,16.0080953577719,3.61233636097118
35.17,10.1508340835571,-18.217342376709,4.68682479858398,-119.160149618581,-69.3545809455774,104.149019407916,-2.31906008720398,-12.7094917297363,-1.71161508560181,-68.7830102252632,25.3928811453015,-127.847275978624,-2.26945757865906,-5.66280889511108,4.89264631271362,34.7741118193682,-29.081606768837,-44.4679158555168,-2.60794162750244,-12.4173192977905,-1.50751423835754,18.0463689476236,43.948589252164,-3.69056080998804,-4.41813516616821,-7.75057411193848,-6.94532585144043,-61.8403824811337,-49.3625694336259,18.9216440293824,1.52034676074982,-10.4220504760742,0.150827288627625,13.2433705317605,59.7147046680207,9.01337802971093,1.87422513961792,-10.7179841995239,6.1435112953186,41.8739636880022,40.0852156915513,-12.8426680925916,-2.56322884559631,-10.4287977218628,3.77344751358032,-45.3963332241128,12.9791455174922,5.94129042218072
35.175,14.4938039779663,-21.5604686737061,9.7621431350708,-100.578790736291,-66.2378836650305,85.6205193596118,-2.49523186683655,-13.137809753418,-1.58960521221161,-69.5324322413753,28.3033391563126,-130.456927335945,-2.65027451515198,-6.33901500701904,2.85446405410767,21.4456601824378,-63.0570099270422,-42.1872712954199,-3.0027186870575,-12.8221168518066,-1.72605121135712,19.7247342568979,45.1920286056594,-3.12303398854934,-2.85133481025696,-10.4154167175293,-4.51107263565063,-65.1446504166675,-63.4275067083804,15.2199427539712,1.26780164241791,-10.8300361633301,0.00498549314215779,6.55870964107225,57.7844249066834,8.1323946173533,2.27182483673096,-10.203821182251,6.2460675239563,32.5187526195787,30.0589692730254,-9.64504331566382,-2.64757180213928,-10.9156093597412,4.35681009292603,-49.8677643755859,11.2376923121754,7.56692837860982
35.18,17.8289756774902,-22.8250961303711,13.7946434020996,-69.8321272817772,-54.7522512171154,56.8461447449258,-2.77813220024109,-13.5443830490112,-1.32772052288055,-69.7188417642033,30.1836577914185,-132.602767867488,-2.87459540367126,-7.5321626663208,1.24109506607056,3.9318530372312,-88.9076913316531,-36.3449699511065,-3.33137941360474,-13.2283811569214,-1.69734573364258,20.7750756248205,47.0948100253982,-2.60765310010274,-1.60923039913177,-13.9406452178955,-2.30933618545532,-64.3981927026551,-71.8642041825043,8.49961034656893,1.0338841676712,-11.2920694351196,-0.155531480908394,-2.6022179770707,55.5354485186733,6.21080883305578,2.8067045211792,-9.69385528564453,6.30251121520996,22.9437580164953,19.553725103101,-7.24098492122764,-2.59571981430054,-11.4969692230225,4.89857816696167,-53.2955323765972,11.6619640266227,8.21989446326304
35.185,18.1621952056885,-21.1162033081055,15.1660022735596,-41.5979215926962,-15.4376652790491,37.5302741494814,-3.22543239593506,-13.9034337997437,-0.869105279445648,-70.1417124360972,30.9471875632613,-134.300397725317,-2.66782212257385,-9.07277870178223,0.444750487804413,-12.8869849212476,-99.1363299156649,-28.4749920554388,-3.45774722099304,-13.519793510437,-1.51510000228882,21.6457949704029,48.6556721752862,-1.81885653752936,-0.357077896595001,-17.1159439086914,-2.17537236213684,-59.1307234939846,-90.1743089320969,0.24038917484926,0.83162385225296,-11.7528381347656,-0.289132326841354,-11.5239822525574,54.231613217442,3.2302562191309,3.38734722137451,-9.60991096496582,6.21243190765381,16.9139252907827,11.9768681907589,-5.98946502705729,-2.48311281204224,-12.0988960266113,5.37056970596313,-54.670941230141,13.3154136595785,7.71008402097141
35.19,15.8193330764771,-17.389497756958,13.1458892822266,-32.064148888801,55.8416117482191,33.4343394778189,-3.5414891242981,-14.1409158706665,-0.232524916529655,-70.9853227608638,32.4036707622532,-135.947415881395,-2.05002593994141,-10.7663879394531,0.292747646570206,-26.1644688328177,-95.9613984422545,-20.8436934127698,-3.41679072380066,-13.7561044692993,-1.29596984386444,23.0096368985873,49.7333428376254,-0.532730689516341,1.15181255340576,-19.2367420196533,-3.51773381233215,-50.6619002250995,-115.400335386164,-5.9493641326665,0.680993020534515,-12.1339254379272,-0.460351258516312,-19.8663445689597,53.8504408504311,-0.469518569408342,3.95666098594666,-9.82165050506592,6.14695644378662,13.2589023819331,6.4844172465832,-5.37101914535614,-2.3070969581604,-12.648006439209,5.79598379135132,-54.142745626151,15.0462237226211,6.37123076675234
35.195,10.9515743255615,-12.2456941604614,7.60797739028931,-47.4619634291377,154.122344357124,46.1350045224714,-3.58467483520508,-14.2495107650757,0.584155440330505,-72.3184254226885,35.1992842650123,-137.678718571832,-1.03905725479126,-12.5208520889282,0.751160681247711,-34.2895269732287,-80.0626305074324,-14.5663448768197,-3.23070669174194,-13.9783372879028,-1.09382832050323,25.3316280088249,50.1809592848822,1.36627731751032,2.94251441955566,-19.9805507659912,-5.9566798210144,-39.7426134027835,-144.245330741774,-8.43178827565799,0.594067692756653,-12.393744468689,-0.710582494735718,-27.4359136694574,54.4063670224514,-4.7706028286297,4.4715461730957,-10.2762641906738,6.20527172088623,11.4459055063814,2.49459788796998,-5.20891741201058,-2.06307196617126,-13.1071243286133,6.17831134796143,-51.6441633900174,16.348329278445,4.33041122388755
35.2,4.54126358032227,-8.36676692962646,0.397916465997696,-88.4486069967798,220.334198171228,68.5966211930027,-3.06779456138611,-14.4046783447266,1.6051299571991,-74.0789408322052,39.3533267710386,-139.492488966307,0.17472468316555,-14.095630645752,1.86237359046936,-33.0864847735794,-54.1281460968001,-12.272939815806,-3.02273225784302,-14.3641386032104,-1.02807867527008,30.358698464373,49.332885431493,4.06249918812791,4.47303199768066,-18.9686527252197,-7.71168518066406,-29.5513154629642,-156.737692092214,-4.54434939727845,0.59962660074234,-12.4351682662964,-1.18410539627075,-33.7660783507119,55.8459898994771,-9.4841846767472,4.74704456329346,-10.835786819458,6.70412683486938,9.83741217854264,-2.84694941800437,-5.35958967755377,-1.73738491535187,-13.3938465118408,6.49333047866821,-46.7077705258903,16.3213585689599,1.89373547451338
35.205,-0.0336864776909351,-7.61420059204102,-1.67526686191559,-116.581616603118,231.642505247911,83.3356298369458,-2.67918515205383,-14.6364011764526,2.51304984092712,-76.1094672799907,42.6926062562579,-141.522421187635,1.29757106304169,-15.2696304321289,3.10348916053772,-24.6298619300992,-32.0986754950554,-13.2298715166396,-2.91987776756287,-14.6196632385254,-1.26597833633423,37.4927046939517,47.3903967070143,6.75772854688173,5.27943086624146,-17.7231197357178,-7.81563758850098,-19.7530146551563,-148.167498570762,-0.806866628435444,0.643382668495178,-12.2744693756104,-1.85443639755249,-39.4223219269395,56.869234199415,-13.7564014082458,4.73523283004761,-11.3954343795776,7.38993835449219,8.08781568018792,-9.091078261709,-5.89503680800822,-1.4478679895401,-13.5707664489746,6.69463443756104,-40.8882854284994,15.1183231994997,-0.19281980210639
35.21,-3.65429735183716,-9.05727005004883,-1.38615047931671,-132.215099990577,224.811168606117,93.5925727248782,-2.5229971408844,-14.9401216506958,3.30770468711853,-77.9542467332978,45.6655178094922,-143.679149040715,2.35024857521057,-16.0434131622314,4.09549903869629,-12.216048608888,-18.0431809568285,-16.7650818083898,-2.89869284629822,-14.7151899337769,-1.63455533981323,45.6272175237214,44.7510408569921,9.21032482688096,5.5955491065979,-16.3360233306885,-6.96374416351318,-9.46580293014341,-125.2499872637,0.457724380176464,0.703501880168915,-11.9267082214355,-2.66936230659485,-44.8605219591983,56.7936854770055,-17.3301536037087,4.49946260452271,-11.920919418335,8.06365013122559,5.84100830412612,-15.7298539415531,-6.68426303216908,-1.21799194812775,-13.6906805038452,6.78334331512451,-35.4103541858386,13.4113889164746,-1.81520195943658
35.215,-6.72966957092285,-12.1889543533325,-0.300584882497787,-135.753315565562,218.907317012099,101.174055382836,-2.65942811965942,-15.3122148513794,3.99414157867432,-79.3380567195208,48.5216126373518,-145.95597894016,3.34534215927124,-16.3887195587158,4.58973121643066,2.11870418997045,-14.7286831054653,-22.5468659691096,-2.94782376289368,-14.6355457305908,-2.03202319145203,54.2136634803032,41.5592422314264,11.2836116739654,5.52022171020508,-14.859992980957,-5.54893922805786,1.86315906547677,-90.6550517968282,-2.04374457137685,0.766606688499451,-11.3960123062134,-3.59349799156189,-50.3931220359757,55.0997712420857,-20.0081649093386,4.0551495552063,-12.3911638259888,8.62159633636475,2.98575230887396,-22.4058106099178,-7.64299363407532,-1.06153666973114,-13.778470993042,6.75019121170044,-30.9603561679811,11.5739160580321,-2.88657219915326
35.22,-9.208251953125,-14.5291576385498,-2.60768961906433,-143.608306318643,226.022529976176,112.295440672503,-2.95017576217651,-15.6587085723877,4.77847194671631,-79.8220849052429,51.8593075186836,-148.954636891471,4.38226890563965,-16.1917858123779,3.95977711677551,9.08038389301605,-25.3323776220863,-28.4107865696933,-3.00401830673218,-14.5499992370605,-2.13878726959229,62.8882905941646,37.3349341543136,13.0556180229869,5.10129976272583,-13.5092144012451,-4.99541473388672,15.3179132798786,-42.993418032589,-7.04751170213739,0.78296285867691,-10.8006238937378,-4.34134531021118,-57.5314551903936,50.0168605749781,-21.3803584513306,3.30188941955566,-12.7866039276123,9.10095977783203,1.39996903986041,-27.1152909294387,-8.24496296506428,-0.943926572799683,-13.8373918533325,6.5303201675415,-27.9175205531188,10.444716741047,-3.39150631326432
35.225,-10.0944633483887,-15.4618968963623,-4.00565481185913,-151.742405921968,214.998631976532,118.190194454548,-3.27292680740356,-15.9449777603149,5.70586061477661,-80.3906025309981,54.9716232328779,-152.405521667728,5.30774831771851,-15.6715307235718,3.10516119003296,8.58773173969314,-36.4492191284084,-31.3731625561329,-3.01481533050537,-14.4930553436279,-2.01615118980408,70.4359774761088,32.892589363421,14.7147905006935,4.63819169998169,-12.4438314437866,-5.44783401489258,28.4098286356622,10.4041377334143,-8.99177328759254,0.729147136211395,-10.2103052139282,-4.93631982803345,-66.6631995446472,42.6262919496062,-22.3611189746311,2.25338745117188,-13.19753074646,9.66792678833008,3.30631827294522,-29.9359643962626,-7.97296604929416,-0.808440148830414,-13.851619720459,6.27638912200928,-24.1185625065685,9.78276041989879,-3.75532722501904
35.23,-10.136622428894,-15.4305992126465,-4.57982540130615,-155.497780531424,182.999482582967,117.581064523988,-3.65295243263245,-16.2090167999268,6.68085813522339,-81.2214882133409,58.0372716795681,-156.030289399875,5.97866058349609,-14.9930686950684,2.36680555343628,2.36192039612543,-44.3605418666696,-31.8185113805853,-2.93683481216431,-14.398136138916,-1.78118789196014,77.3060891018203,28.4605188845875,16.4640292678905,4.13084506988525,-11.5476102828979,-6.30040168762207,39.535815765283,61.7975913459836,-7.60762093813747,0.606144428253174,-9.56900405883789,-5.48204040527344,-77.2448837766678,33.7612698975362,-23.2779523423948,1.03609418869019,-13.6133232116699,10.0446615219116,9.20837139277833,-30.8009907791718,-6.98194017855798,-0.641720116138458,-13.8070211410522,6.0208535194397,-19.966410255395,9.60462908634486,-3.93869304479814
35.235,-9.87865257263184,-14.729175567627,-4.34769201278687,-150.899096125525,126.483519427804,109.053252326336,-4.11387300491333,-16.4797039031982,7.63040781021118,-82.4723690579371,61.195633114052,-159.618037506721,6.26550769805908,-14.278133392334,2.02317428588867,-8.57814983806126,-45.910332279913,-29.8987706011373,-2.73011493682861,-14.2099275588989,-1.52020013332367,83.814760777033,24.2210768158212,18.4703426950683,3.57650971412659,-10.7383947372437,-7.0954532623291,47.2995859269044,104.903823613094,-2.47724301761922,0.410502552986145,-8.82898902893066,-6.05796480178833,-88.9327512957178,23.994683365592,-24.3876173183537,-0.259680151939392,-14.025824546814,9.99837970733643,19.7515632399577,-29.5374331034761,-5.35118000713819,-0.431222915649414,-13.6887454986572,5.78944635391235,-15.7601390003329,9.95314290383934,-3.89924187215215
35.24,-10.0941867828369,-13.9279556274414,-5.11975622177124,-141.855652456861,68.4598944661974,97.1932777005796,-4.54977655410767,-16.8902854919434,8.28511810302734,-83.4993631317294,63.5610573972217,-162.075184400255,6.06195211410522,-13.6657915115356,2.20196628570557,-24.2569814127407,-34.800817859023,-23.710620920653,-2.3735466003418,-14.0054292678833,-1.61221146583557,93.2860406651172,17.562566158144,21.7085678239699,2.72298645973206,-10.4036989212036,-6.76390266418457,51.7853399850669,120.915754122085,5.89761477753307,0.126713410019875,-8.21748924255371,-6.33516502380371,-100.837333886943,14.9825970954078,-26.2384893004004,-1.11377644538879,-14.1792526245117,8.60397911071777,35.7434795871331,-22.6589544960314,-3.39854204843967,-0.0479328855872154,-13.3976764678955,5.45420408248901,-11.9998415320322,9.75491203110535,-3.63632526599673
35.245,-9.82404804229736,-13.2959470748901,-5.70800065994263,-131.229749580154,19.9287895734466,88.4358482034102,-4.82255840301514,-16.9820346832275,8.20932102203369,-83.0331344189843,64.393930664613,-163.199775047098,5.63612937927246,-12.8479089736938,2.40713119506836,-35.6156150307759,-16.7599625816069,-15.7937828046371,-2.17277884483337,-13.9113550186157,-1.92727172374725,103.081863821804,8.45217212146225,24.6446168462537,1.50262463092804,-10.3256435394287,-6.00599956512451,56.1033958236328,125.052430872146,13.9524807713912,-0.238476663827896,-7.70116710662842,-6.50362873077393,-113.814331309941,6.74928002976525,-28.6728370224846,-1.57835328578949,-14.0179672241211,6.96043395996094,49.6769323052703,-13.3950997690777,-1.40602058746504,0.404626071453094,-13.0288209915161,5.13050842285156,-8.8192683223674,8.95590711048715,-3.20622355820598
35.25,-8.98028659820557,-12.6523065567017,-6.1830849647522,-119.886362651894,-16.7243499752744,82.3402936899565,-4.92848682403564,-16.6264324188232,7.52087354660034,-81.6161706945301,64.1464046090917,-163.07606666085,4.9787392616272,-11.8325519561768,2.45746278762817,-42.6541761968928,4.69712279976506,-7.53219515913301,-2.01772713661194,-13.6667652130127,-2.25756311416626,113.981991963498,-3.72322917790139,27.042105452482,0.0132995508611202,-10.4881038665771,-4.93995666503906,59.8090910521611,119.563800138151,21.9316896135868,-0.691216230392456,-7.29421663284302,-6.64736032485962,-128.05731795598,-1.19264974666207,-31.3850163494375,-1.76462376117706,-13.6025876998901,5.43421792984009,60.2045043635915,-3.78472435920678,0.48874170994052,0.908183336257935,-12.5899991989136,4.84763050079346,-6.21345040871728,7.39694546073572,-2.42023078828689
35.255,-7.40828275680542,-11.7689275741577,-6.62508296966553,-108.857096123562,-37.5887610593442,78.5577076068468,-4.85003852844238,-15.6275959014893,6.32072830200195,-79.8569188700099,63.3034158315396,-161.713922034675,4.06028366088867,-10.6146631240845,2.11338114738464,-45.0405042740173,25.4168090055114,-0.638141105698853,-1.77359676361084,-12.9322347640991,-2.34315323829651,127.051026185562,-19.9697365575208,28.5626045994698,-1.642706990242,-10.8893241882324,-3.69059324264526,62.2966596082581,106.536313956808,30.1364065427404,-1.24596500396729,-7.02288436889648,-6.8700008392334,-143.906881208021,-9.43312730515407,-34.0123920476555,-1.79090893268585,-12.9897346496582,4.49479866027832,65.3712829235177,3.63719013870039,2.10528905811031,1.44370639324188,-12.085654258728,4.64548540115356,-4.22035809333842,4.81957101611046,-1.01387829631686
35.26,-5.11028003692627,-10.6752510070801,-7.24861717224121,-105.193068464065,-50.737588966387,70.6262323954395,-5.13133859634399,-14.7012805938721,5.07212543487549,-79.9049009489293,62.3312408560258,-160.712179170244,3.26795053482056,-9.19247245788574,1.28258442878723,-45.9023887699082,42.2102617121662,4.54274729103126,-0.990361988544464,-11.5145301818848,-2.09137010574341,141.918544838739,-36.8037674180346,29.2434310257475,-2.78281378746033,-11.571873664856,-1.99061608314514,64.9211188157005,82.9799750566741,40.1056379571697,-1.92224955558777,-6.92060613632202,-7.06178522109985,-160.560740215966,-19.4886402304999,-34.2638966883683,-1.80811405181885,-12.2243127822876,4.13469219207764,68.5023372616999,5.6908004914465,2.66986609160121,1.99225699901581,-11.4414005279541,4.55677556991577,-3.03847197775635,-0.0334843320602731,1.94181146853381
35.265,-3.15562725067139,-9.79139232635498,-7.22272920608521,-102.157247453481,-56.6372468242555,61.6929869988448,-5.33943939208984,-14.0554447174072,3.02372431755066,-77.6352017669774,64.4971416531611,-160.834275631847,2.50691533088684,-7.77405738830566,0.385979861021042,-46.3622415010631,53.6444628356311,8.30400909666539,-0.23269721865654,-10.6640501022339,-1.92493033409119,152.713754444592,-50.5914502389054,29.3277804469026,-3.21869349479675,-12.3294706344604,-0.132735788822174,68.5973725138114,57.9167120105282,46.7885170222582,-2.56700968742371,-6.81528520584106,-7.04588508605957,-176.196750773418,-30.8355515363721,-32.6867513674989,-1.82092070579529,-11.1800441741943,3.84681916236877,70.5228848031081,6.45286262639139,2.31670497070677,2.50868391990662,-10.6990041732788,4.53373908996582,-3.21981051201243,-6.4276694736378,5.77229190532074
35.27,-1.55362093448639,-9.12361907958984,-6.93840169906616,-99.1921598819405,-55.7345382876954,52.7090855042707,-5.1798300743103,-13.7498731613159,0.505682051181793,-72.9463452036553,70.5650817118004,-161.84126408156,1.73565971851349,-6.43189716339111,-0.548948168754578,-47.0341681908523,58.5615570002583,10.9765605198275,0.417947292327881,-10.3910760879517,-1.80211341381073,159.826972993432,-61.3729584852839,28.8377109588596,-3.1798677444458,-12.9877395629883,1.66905856132507,73.0223173977934,31.7666463391228,49.4568397045504,-3.05519533157349,-6.68335628509521,-6.77884006500244,-189.721303971609,-42.2707123014154,-29.95450152967,-1.82057523727417,-9.95920467376709,3.61747407913208,71.2339894579764,6.60905112346301,1.23387666177057,2.99414777755737,-9.87779331207275,4.5889139175415,-5.1353998171055,-13.7712143810082,10.1816502976167
35.275,-0.24643175303936,-8.66232967376709,-7.19670581817627,-95.9581814231554,-48.1109133625589,45.1400406207919,-4.10135841369629,-13.9117698669434,-1.826789021492,-65.8256407674852,82.0493959332057,-163.293266676457,0.884424149990082,-5.28944206237793,-1.51846432685852,-48.9859015763726,54.2325523684529,13.041897026718,0.855418920516968,-10.6442565917969,-1.60396444797516,164.228182970048,-69.2905001107843,27.7289663508914,-3.07107663154602,-13.2275457382202,3.03422212600708,77.6041380666321,4.26172897602801,46.8399449316138,-3.14949941635132,-6.49548006057739,-6.17047929763794,-199.031862678333,-51.5788872721196,-27.1641438574772,-1.788614153862,-8.75028896331787,3.48022484779358,70.0235023521318,6.96562968681999,-0.31321097091307,3.45234084129333,-9.00169277191162,4.75931882858276,-9.61268102560265,-21.1201248288585,14.7411499082479
35.28,0.662081241607666,-8.57352924346924,-7.80032968521118,-91.1627807389703,-45.4259318488811,40.6989628299904,-2.57939958572388,-14.3273277282715,-2.72230195999146,-62.1204612182392,88.3851818601471,-164.086729752337,-0.216353043913841,-4.53758382797241,-2.49016809463501,-57.0810691014284,40.2462305710452,17.0516458101123,1.07621419429779,-10.8807325363159,-1.10325729846954,175.712545002778,-75.8242522406293,25.6458918427263,-3.81005692481995,-12.8452939987183,3.57745981216431,78.2911936254329,-26.8684598456655,40.1070927874629,-2.76066851615906,-6.52985668182373,-5.38677215576172,-205.591125564728,-56.6641885054367,-25.8042309956129,-1.70423376560211,-7.77927923202515,3.44529962539673,67.5066117939279,6.91570313842131,-2.07555788498347,3.90284085273743,-8.16359424591064,5.0418906211853,-17.1165206543964,-25.4904162466493,19.114105099815
35.285,1.00549101829529,-8.80447673797607,-7.9167594909668,-86.2346763094011,-44.0353975414203,38.5804737909788,-1.44865548610687,-14.5836229324341,-3.1655101776123,-61.473560341569,87.4518365100648,-164.081074355704,-1.50259757041931,-4.04720830917358,-3.42575335502625,-70.2186340265298,20.0338566659016,21.9340545665869,1.11420345306396,-10.9648914337158,-0.695680439472198,190.494262819601,-81.1731714551523,24.4459488414129,-4.95547580718994,-12.2251663208008,3.67955899238586,76.16246954795,-55.8207830863451,32.8238025282898,-2.45375227928162,-6.85414695739746,-4.47511196136475,-211.498173687279,-57.4120361629451,-24.3221192193078,-1.61000192165375,-6.99113512039185,3.57204270362854,63.5571778497731,6.14382388720499,-4.25328515466659,4.35704851150513,-7.37507581710815,5.33382606506348,-25.5275263719573,-26.894633130565,23.2242072913633
35.29,0.876457631587982,-9.30903434753418,-7.48883199691772,-81.7521802514726,-44.7188262697718,38.2005069523564,-0.954666197299957,-14.6379718780518,-3.53448033332825,-63.6010823057579,78.4985991497695,-162.699340746989,-2.88411164283752,-3.80533194541931,-4.31348419189453,-87.1467456202187,-5.69134007639093,27.097797107427,1.04409551620483,-10.9313631057739,-0.510188102722168,205.155441457952,-84.5165217331168,24.9036227422225,-6.28786563873291,-11.5276346206665,3.49234986305237,72.5903284233576,-79.0481834911454,25.798773674466,-2.29491138458252,-7.49648141860962,-3.52241706848145,-216.470442120021,-51.6297141248282,-22.5631269419761,-1.49989318847656,-6.37672090530396,3.83481597900391,58.2759253193575,4.34847067093988,-6.61806910760154,4.81916952133179,-6.6252818107605,5.61465215682983,-33.9604621193959,-25.5637690632407,26.9698847397456
35.295,0.562107622623444,-9.99703311920166,-6.60350227355957,-78.9185601610769,-51.2576224943188,38.3108418282088,-1.56608939170837,-14.4979963302612,-4.56423807144165,-68.0593994940245,59.3835429461126,-158.189093630463,-4.13046312332153,-3.84372496604919,-5.12880039215088,-104.96861478756,-36.6033901583539,31.2379555464179,1.06108140945435,-10.9194946289063,-0.798222064971924,211.118838641155,-83.212099035617,28.7472143674515,-7.34625816345215,-11.0727796554565,3.29275178909302,71.0435296329706,-87.8217458951344,20.1115364073321,-2.28460311889648,-8.54300689697266,-2.76057648658752,-218.837676403321,-32.3864416100718,-20.6166971983463,-1.33945751190186,-5.94526958465576,4.14982080459595,51.8807133315424,0.674154612119068,-8.44992669677261,5.298011302948,-5.88194513320923,5.86118268966675,-40.6127658426648,-21.9166068483521,30.0502676120228
35.3,-0.307470262050629,-10.5729093551636,-5.87220668792725,-76.1935469086736,-54.339581432747,39.335745864115,-2.49368476867676,-14.3461179733276,-5.49802255630493,-72.12231020105,41.8839904057038,-150.197649358143,-4.83225250244141,-4.09411334991455,-5.63225841522217,-116.472688746235,-61.2396673436311,34.4219267751948,1.08089804649353,-11.2353286743164,-1.37777328491211,205.711473497904,-75.7943838233889,34.3997081698248,-7.5538444519043,-10.8586559295654,3.12843751907349,78.1328151989586,-77.7518409074337,14.9406751018296,-2.01603579521179,-10.1069231033325,-2.0681734085083,-221.873859413932,-2.02793951363744,-20.5717869970062,-1.17740213871002,-5.72999906539917,4.37307929992676,46.2016261876357,-4.31884131032037,-9.33571087834311,5.72239351272583,-5.14977788925171,6.0010142326355,-44.2402007636831,-18.5515707197727,32.416979385851
35.305,-1.31349968910217,-10.9631938934326,-5.50448656082153,-73.5467598128345,-54.1071569254806,40.6044705779178,-3.08469247817993,-14.0906114578247,-6.07630681991577,-74.1965361991453,29.0702515793418,-140.963479487096,-5.17939043045044,-4.55298042297363,-5.69713592529297,-123.364513543317,-78.4380495227773,37.0542202096152,1.04624199867249,-11.8576002120972,-1.97646498680115,197.710439639989,-65.770432348424,40.2667006479878,-7.11627674102783,-10.5982971191406,2.86406373977661,89.9828109183373,-59.3505599626106,9.3545963513982,-1.40208292007446,-12.036283493042,-1.27481639385223,-225.731440974128,30.8551473491008,-22.2478419947937,-1.02912056446075,-5.60979747772217,4.54290246963501,41.4386586567244,-9.3212274622081,-9.45404817458182,6.05985546112061,-4.50255250930786,6.0346097946167,-46.321400384921,-16.1501650000554,34.2048565331827
35.31,-2.14887404441833,-11.1500368118286,-5.49463224411011,-71.0283119714998,-51.5526047041933,41.6948044109782,-3.15330648422241,-13.6645221710205,-6.27521800994873,-74.222880238774,20.2931272317007,-131.191978634044,-5.17863607406616,-5.27408075332642,-5.28352451324463,-125.977757580143,-87.9534865838456,39.3711159987319,0.91788911819458,-12.7087726593018,-2.52885842323303,190.017542936291,-54.8196139578047,45.6272380142889,-6.17495727539063,-10.2081937789917,2.434077501297,104.439746409937,-37.1117372326159,2.961634057141,-0.418868482112885,-14.2635288238525,-0.373369336128235,-230.043175472617,62.4137495411996,-25.4836628971075,-0.908558964729309,-5.55296659469604,4.66823959350586,37.6617689513824,-13.7856423018562,-8.81520948245312,6.30040645599365,-3.97513318061829,5.96495676040649,-47.3827605555222,-14.8383110567386,35.4619118687885
35.315,-1.79920494556427,-11.1236085891724,-5.60645627975464,-68.9024770640359,-51.1639566951359,41.3071809302962,-2.48519372940063,-12.8471231460571,-6.24287509918213,-73.5183940372114,9.45269408957886,-121.936498572786,-4.67162132263184,-6.51178598403931,-4.33190202713013,-124.164000846046,-89.8044473583515,42.0707004568553,0.570095896720886,-13.4482736587524,-3.00194907188416,187.397714597105,-47.27197147209,48.711263084941,-5.18411254882813,-9.58559417724609,1.66790866851807,115.327962701719,-21.4945779972734,-5.13438852222152,0.957901895046234,-16.625337600708,0.499075472354889,-232.942672737558,83.276138889275,-29.7075628704174,-0.865405380725861,-5.5326943397522,4.75254583358765,34.997455590133,-16.4670243058415,-7.28850169350978,6.42988538742065,-3.65643978118896,5.80552959442139,-48.4021560438629,-14.5221381849641,36.2773169273775
35.32,-0.895109593868256,-11.0882949829102,-5.24133443832397,-65.3499454125505,-52.8852736490058,39.7778401034278,-1.19562649726868,-12.0467405319214,-6.20314264297485,-74.1614358570006,-3.1736469709596,-113.627006541765,-3.38591837882996,-8.0635814666748,-3.39209318161011,-118.132315431521,-83.8291861365601,44.2167902903029,0.479577541351318,-13.7478847503662,-3.25699877738953,188.898894554026,-43.2670866371585,49.3192284682476,-4.66221046447754,-9.02500247955322,0.756832301616669,119.510497341868,-17.1948987826696,-13.828185842649,2.2320544719696,-18.5444831848145,1.12267899513245,-229.111701594368,83.4621795818878,-34.2844248219187,-0.915292203426361,-5.53395795822144,4.80853271484375,33.6533597388392,-16.7133004367447,-5.26811893041531,6.42398738861084,-3.61611151695251,5.65912580490112,-49.7029792316701,-13.464164080644,37.0063405835334
35.325,-0.0413752794265747,-10.9347877502441,-4.74599981307983,-61.4292733949906,-52.8831870262144,38.153931892406,0.493772834539413,-11.655065536499,-6.48130559921265,-75.3576751882366,-18.667053850712,-106.095486717586,-1.69686627388,-9.81065273284912,-2.6982536315918,-110.77041652519,-77.1061011629223,45.0947598816893,0.658705174922943,-13.8142166137695,-3.30065822601318,191.618675881525,-39.9596802297011,48.9552306119047,-4.32242631912231,-8.71154689788818,-0.111682772636414,120.150950519961,-19.0891305131148,-22.1397798643877,3.14844822883606,-19.8362331390381,1.44796669483185,-219.063933249767,68.0879838357011,-39.1705782296058,-0.959698081016541,-5.5196647644043,4.77767276763916,33.0263142220861,-14.7737282030416,-3.02738572695977,6.32716226577759,-3.77033281326294,5.53677988052368,-50.9761674740955,-11.1293279458986,37.532992564771
35.33,0.569831073284149,-10.6289539337158,-4.28017282485962,-57.6819584087548,-49.5218084639355,36.8146888905175,2.43494462966919,-11.8223438262939,-7.22038078308105,-76.7750145730951,-37.1324531963686,-99.2343567906329,0.279473870992661,-11.671591758728,-2.35848259925842,-102.966508756911,-72.2810096464152,44.2352420463457,1.07857894897461,-13.7462549209595,-3.13421082496643,194.371474343472,-36.9242587851828,48.2560002409083,-4.03683376312256,-8.71582794189453,-0.862658143043518,118.648240600667,-24.9201261868045,-29.6508996210629,3.5820529460907,-20.3954124450684,1.46544051170349,-203.260569397272,39.5860927877635,-44.3705412636145,-0.959331333637238,-5.47944450378418,4.62667512893677,32.7249457853377,-10.6181830553979,-0.676889729355688,6.15541124343872,-4.09321117401123,5.44500350952148,-52.1154737635049,-7.23486080286308,37.8195838872502
35.335,1.07693088054657,-10.2278671264648,-4.20066213607788,-55.6210307889735,-40.6866719045789,35.93796239356,3.95291328430176,-12.5712242126465,-8.59049797058105,-77.8027804582636,-55.7193001356571,-92.450565095652,2.54595923423767,-13.2730493545532,-2.53215193748474,-94.2174462414751,-71.2418919868461,40.1656582445012,1.40656661987305,-13.8260307312012,-2.80248117446899,195.349898942076,-38.4070587030467,48.4220250641584,-3.52526712417603,-9.03176689147949,-1.42244684696198,118.3793633738,-29.1720657942046,-35.8059006859578,3.32370185852051,-20.0454959869385,1.30974960327148,-185.532881708395,7.23741187851808,-49.9632162692368,-0.872161984443665,-5.43622589111328,4.27185821533203,31.0976805363388,-3.86668919056787,1.59523102146126,5.93723344802856,-4.55946826934814,5.39952707290649,-53.1277009683117,-1.30924555810583,37.9341466501988
35.34,1.50147700309753,-10.0196924209595,-4.19755601882935,-53.3825592319069,-33.1706395343431,34.7074184372176,4.5502552986145,-12.9777336120605,-9.37962627410889,-77.7694013237898,-59.8476611304041,-86.0964059598433,4.92006635665894,-14.0512428283691,-3.07017278671265,-84.2681555643277,-71.3626019200478,33.9297467586983,1.55457091331482,-13.9468479156494,-2.41924452781677,195.776649161419,-41.8265929110136,49.6357599249535,-2.98235964775085,-9.27973747253418,-1.98209989070892,119.300605628673,-31.3680091784042,-40.6186842015806,2.72825574874878,-19.1124267578125,1.37947022914886,-170.561598821348,-17.6555728440721,-55.2063939101242,-0.913251101970673,-5.55931997299194,3.90657567977905,27.0227845548673,3.81117042478625,3.785049646966,5.61072444915771,-5.31015205383301,5.36729955673218,-53.9790703879754,5.78639283086223,37.9010885346159
35.345,1.82267594337463,-9.96809959411621,-4.24152183532715,-50.5921332578224,-25.812702137731,33.2666002770872,4.94961643218994,-12.8104066848755,-9.01894760131836,-75.79495072909,-49.8585538654901,-80.438687062755,6.88233613967896,-14.1880407333374,-3.80106687545776,-76.1847359646443,-71.7534868160584,26.7302560904521,1.60850787162781,-14.0142707824707,-2.10722541809082,195.68463285292,-45.3797836757539,51.9149496547571,-2.55681657791138,-9.44586563110352,-2.49841403961182,120.30049068165,-34.2585964615723,-43.9110095513506,2.00159287452698,-17.8695220947266,1.64234900474548,-158.589424678096,-35.3811175610964,-59.9607007611679,-1.04376935958862,-5.7804012298584,3.58941078186035,21.309595983982,11.4926419295508,6.05905398252914,5.23919057846069,-6.24455165863037,5.35611009597778,-54.5790410348585,13.5872534809977,37.7010869353396
35.35,2.01431560516357,-10.0568590164185,-4.32501316070557,-47.0935566856855,-17.9269738258371,31.7017219759672,5.5844144821167,-11.9167947769165,-7.21355962753296,-71.2380875714784,-25.98970136743,-75.6469541901542,8.10646343231201,-13.7415904998779,-4.63114929199219,-71.9913481539041,-71.9449575090614,19.3743797034221,1.61640763282776,-13.9775657653809,-1.9300754070282,195.115719076193,-48.0880937005419,55.3076719551371,-2.34458422660828,-9.51730728149414,-2.93365931510925,120.744084147485,-39.4997762721275,-45.4486558882497,1.2472733259201,-16.473690032959,2.06377768516541,-150.005119985819,-45.6574274504203,-64.1496421187583,-1.24578678607941,-6.06790637969971,3.35641503334045,14.3495444272798,18.6160545357268,8.50714404522345,4.8523325920105,-7.31249952316284,5.37072944641113,-54.8373792798359,21.8406602674234,37.2774956784884
35.355,1.90546655654907,-10.1824083328247,-4.54378128051758,-44.1842683445699,-8.03897043611222,30.4112636002254,7.58901214599609,-10.3255949020386,-5.20881462097168,-62.8552256483925,-3.39826691988217,-71.5419695178415,8.06564807891846,-12.6721324920654,-5.31025218963623,-77.1292555042087,-71.6658759795747,15.9290444558655,1.7206746339798,-13.8740825653076,-1.7964209318161,195.030874466323,-49.3333806202078,59.4454312901821,-2.54262185096741,-9.47652339935303,-3.06246066093445,119.682741052357,-50.0728032393751,-44.2293134421461,0.50474601984024,-15.4626092910767,2.13406085968018,-146.501069017062,-47.8413292111131,-68.2090762594962,-1.47601890563965,-6.4047908782959,3.25183820724487,7.13797115439187,23.8338972974353,11.0817112820998,4.4284029006958,-8.38402366638184,5.40201854705811,-54.2414486898468,29.7088025497517,35.961284074481
35.36,1.48803329467773,-10.2686634063721,-4.65989065170288,-41.7107972989198,-1.09989172230848,28.900579435075,9.71667861938477,-9.25088214874268,-5.84025287628174,-59.0660689233012,-3.2203545792685,-69.5623621303183,7.19082736968994,-11.4186229705811,-5.46823501586914,-85.5152729746911,-69.8530823021508,16.615497250472,1.7550607919693,-13.5631151199341,-1.78109633922577,195.923990002194,-49.8511089592948,63.0010433569831,-2.82754015922546,-9.41413974761963,-2.98973083496094,118.060707728262,-61.1666184704578,-41.2653904178595,-0.144641548395157,-14.9133186340332,1.9047440290451,-145.370153615048,-45.812667404971,-72.2950320247812,-1.70790076255798,-6.84033584594727,3.17151594161987,0.441374454768187,27.9145425906406,13.5264135709658,3.93230557441711,-9.34988594055176,5.41278409957886,-52.6185069505926,36.508720321363,33.6333370392873
35.365,0.843964159488678,-10.3513154983521,-4.62389850616455,-39.600876732222,3.12771565633856,27.5072174292978,11.1043357849121,-8.63706493377686,-7.70785236358643,-59.9486181565261,-9.7436507567113,-67.0891779526134,5.79906272888184,-10.1256160736084,-5.08585643768311,-93.1370878996975,-65.1650043803941,20.2943225148054,1.75333321094513,-13.1373109817505,-1.85969960689545,196.581723558888,-50.0740429187094,65.7796052924793,-3.11885166168213,-9.35589122772217,-2.77687406539917,116.300253790448,-70.6959686268654,-37.3233262478191,-0.638456165790558,-14.6975116729736,1.47778797149658,-145.896269426436,-40.878972465566,-76.1295685267181,-1.89440095424652,-7.29395961761475,3.11355876922607,-5.37147634114371,31.0663265529539,15.6275445379755,3.35127139091492,-10.2047119140625,5.40251350402832,-50.4819623065101,41.987867337696,30.4567902261382
35.37,0.0246078372001648,-10.4585485458374,-4.38713979721069,-37.8192457928863,4.66683603343793,26.507009649883,11.0197353363037,-8.46811866760254,-9.77299213409424,-65.8509739391168,-10.8727160312339,-62.0077084554207,4.11105728149414,-8.90574645996094,-4.11471843719482,-96.7544038954605,-56.3578203702157,26.2418446308302,1.7401567697525,-12.6633768081665,-2.01855897903442,196.023888348995,-50.3285801634137,67.5783970821047,-3.35288643836975,-9.32251167297363,-2.46418452262878,114.729009753022,-76.9053687334048,-32.9532448583453,-0.917481243610382,-14.7334814071655,0.922244429588318,-147.610920115676,-33.9030748699894,-79.4760880124575,-1.99530792236328,-7.70263242721558,3.07783269882202,-9.95296446514728,33.3982009469204,17.1939784146789,2.66993761062622,-10.9374294281006,5.36951160430908,-48.2089914639457,45.8643651067988,26.5095214519502
35.375,-0.589366257190704,-10.4890260696411,-4.24347019195557,-35.907629523456,2.22567861275119,26.0900248935064,8.78009796142578,-8.31315326690674,-9.15903377532959,-63.7462511463774,19.4807411167248,-46.756992284144,2.93828201293945,-8.15653038024902,-3.02651524543762,-93.6443660493544,-45.5826266337249,31.0822682144767,1.69126641750336,-12.6359901428223,-2.05404019355774,192.257298568921,-54.1161283789555,67.7913487200474,-3.49427700042725,-9.35258865356445,-1.97540092468262,113.578874198684,-77.9677295267194,-28.5511947684613,-0.966327607631683,-14.7023372650146,0.338826179504395,-150.638688333229,-27.186722755326,-81.1974049663275,-2.0082950592041,-7.98652458190918,3.08904075622559,-13.5267098304211,35.1879051698551,17.9618231585298,1.91031527519226,-11.5020456314087,5.34512758255005,-46.6466778988591,47.023571152355,22.1758569235837
35.38,-0.960629820823669,-10.4486818313599,-4.20541429519653,-33.9274142490967,-3.75909322057266,25.6814139490523,6.61038064956665,-7.8233437538147,-7.37347459793091,-50.3917491679526,56.4997721917361,-27.4091717713095,2.05871486663818,-7.66745519638062,-2.08107876777649,-89.1785902945141,-36.3594841030928,34.3408319391793,1.64174818992615,-12.6968564987183,-1.99449384212494,188.926748065461,-55.6182065057517,67.91410771,-3.51893711090088,-9.48357772827148,-1.44091260433197,112.662501868689,-77.5642224411226,-23.3054233632366,-0.952996611595154,-14.48180103302,-0.188937067985535,-153.528691635223,-22.0190084594835,-81.881680638136,-1.98468160629272,-8.18824195861816,3.14714169502258,-17.7915772783727,37.1480704239058,18.5729355514965,1.16060316562653,-11.9613466262817,5.31501913070679,-44.7881765955095,46.3498856888546,18.157748842419
35.385,-1.15597641468048,-10.3641042709351,-4.20853233337402,-31.6837551633555,-12.6469695124924,25.3840189748535,4.7654447555542,-7.01894664764404,-5.14326858520508,-29.4544531352496,92.1482199418522,-5.82140438054772,1.3086404800415,-7.36529064178467,-1.17329299449921,-83.8997419906863,-28.6717441922174,36.5722103447928,1.61163806915283,-12.7543907165527,-1.88085126876831,186.648879977262,-54.0508112799226,67.7865266064934,-3.51059246063232,-9.71272087097168,-0.89268296957016,112.357151431654,-75.9106814543867,-17.9629911208779,-0.933832764625549,-14.0947933197021,-0.64534330368042,-156.04564366513,-17.7605204082166,-81.7031531536102,-1.93100333213806,-8.31182956695557,3.24368119239807,-22.2023239066175,38.9386864770947,18.9290599072737,0.462955504655838,-12.3341426849365,5.28914403915405,-42.3065878700308,44.0935224512571,14.5392068277
35.39,-1.24579393863678,-10.2652978897095,-4.17502880096436,-28.9115794547333,-23.856522299061,25.3356083015637,3.59048104286194,-5.90121078491211,-3.34756445884705,-4.9583139293814,116.223960577419,15.8452499875804,0.492326289415359,-7.17240810394287,-0.17398601770401,-78.4271007295378,-22.6165834175152,38.394293079488,1.62760269641876,-12.6932687759399,-1.76037812232971,186.279394063921,-48.1927936703291,67.1881269031194,-3.57189702987671,-10.0441055297852,-0.369814187288284,113.183809226901,-73.1820891828583,-13.4550807828215,-0.979179263114929,-13.5573053359985,-1.00517535209656,-157.865233380778,-13.6778303271285,-80.814361127484,-1.85315930843353,-8.35635948181152,3.37099361419678,-26.0851310629661,40.1195237317523,18.8871379136954,-0.125659748911858,-12.6374130249023,5.28033828735352,-38.7432815951298,40.4471200949136,11.4565187665779
35.395,-1.01965689659119,-10.0870018005371,-4.07647657394409,-26.9171249435018,-34.1168871117675,25.608266038136,2.96839165687561,-4.80102109909058,-2.73172926902771,12.6114055712578,120.375841328573,35.4425346221132,-0.0908960923552513,-7.29899168014526,0.469352781772614,-76.9756718705318,-25.6061742927027,38.5827414137832,1.58242928981781,-12.56529712677,-1.71126937866211,189.050715998897,-42.0189993399329,64.7170054425438,-3.59561038017273,-10.2418060302734,-0.118074640631676,115.5866766071,-69.4941900122124,-10.7462533712038,-1.19842386245728,-12.8942260742188,-1.20675873756409,-159.006011575953,-7.14228057687132,-79.2504732037937,-1.77002060413361,-8.31369972229004,3.47983312606812,-29.2178109861708,40.3762739577477,18.4712750158901,-0.533640146255493,-12.8269596099854,5.269850730896,-32.9241141015352,35.6466855613103,8.93928755268922
35.4,-0.491027235984802,-9.84683513641357,-4.00326776504517,-25.5544970814424,-42.0212737929265,25.9137906449944,2.47262144088745,-3.9028787612915,-2.57780170440674,23.3592264708761,114.101322198487,53.4643712377853,-0.359186679124832,-7.51090860366821,0.816600322723389,-78.0810560254283,-32.5392466021834,37.9786521628306,1.65138697624207,-12.3427906036377,-1.60796666145325,193.57127670107,-32.7548381082402,61.2457667025599,-3.36758708953857,-10.1510515213013,-0.119116850197315,118.167832415205,-64.4196873079731,-9.11503088135459,-1.5091370344162,-12.2540321350098,-1.26878523826599,-159.523999462229,0.572422626330577,-77.6907448653079,-1.67717850208282,-8.23057460784912,3.60730814933777,-31.801405171809,39.8405890513328,17.9162060326106,-0.858077764511108,-12.907151222229,5.21260690689087,-25.4062273349398,30.3722802955376,6.81043882425401
35.405,0.246042847633362,-9.58046531677246,-3.93905687332153,-24.6801765186201,-47.3250625325085,26.2531485939065,2.09052896499634,-3.24962949752808,-2.68875336647034,28.3845876715845,99.755063092198,69.9098821552886,-0.319369494915009,-7.77292394638062,0.903917789459229,-81.3392953161453,-41.8874191606672,36.716805449522,1.83349668979645,-12.0105037689209,-1.38761615753174,198.9465536156,-19.7534944759455,57.1478649364165,-2.93663501739502,-9.8333797454834,-0.35370260477066,120.538918925197,-58.323955209601,-8.36088920452597,-1.86226654052734,-11.6850414276123,-1.21146607398987,-160.004284704286,9.56891829604309,-76.2417612140247,-1.58248686790466,-8.127854347229,3.77521753311157,-33.7111499694066,38.3321520184192,17.2899169593082,-1.11276376247406,-12.8720960617065,5.11383152008057,-16.9367995943131,25.0772376131877,5.13642178416006
35.41,1.03670680522919,-9.35085678100586,-3.84430646896362,-24.0889826648205,-49.4390812127084,26.6620737270625,1.85502922534943,-2.92880988121033,-2.79472470283508,29.1572681893678,79.9491127634268,84.5594972833746,0.0394433848559856,-8.04819774627686,0.76615709066391,-86.3657886207086,-51.5460101565497,34.8947910167186,2.12036490440369,-11.5309028625488,-0.93202143907547,203.718205732041,-1.68810206410128,52.9730859760701,-2.39641237258911,-9.39779472351074,-0.811895430088043,122.089153300736,-51.8367576491388,-8.2721539481501,-2.17801284790039,-11.2706747055054,-1.05856585502625,-161.545598852769,20.310677402773,-75.0456243356262,-1.50109589099884,-8.03810214996338,4.02521514892578,-34.6185508459266,35.3930669770494,16.6890225293398,-1.30626595020294,-12.6980419158936,4.98379564285278,-8.77271802185283,20.5467389857724,4.10965267972356
35.415,1.79755556583405,-9.31164932250977,-3.72697496414185,-23.1515135880268,-48.6966703857792,26.9904282412217,1.79898631572723,-2.95812129974365,-2.64416885375977,32.7072351048198,61.0977223522999,98.2124170568264,0.554111361503601,-8.24634170532227,0.47391152381897,-91.2166162900083,-60.294314520988,32.5943969646366,2.19003868103027,-10.8178634643555,-0.486453890800476,205.257402521882,13.7466282613171,49.7158575533502,-2.12006759643555,-9.10916996002197,-1.29038572311401,124.469050754757,-47.2732077363298,-8.86069939609905,-2.39753484725952,-11.0221366882324,-0.869809150695801,-164.511157707362,32.7757692229517,-74.263253486958,-1.39895558357239,-7.97314786911011,4.37822294235229,-33.8128105050131,30.732118566676,16.4372907848372,-1.43552255630493,-12.3586149215698,4.86903762817383,-0.234886230173198,16.4380438131931,3.89881242400809
35.42,2.52541542053223,-9.34857082366943,-3.67234778404236,-22.2350012391541,-45.5318885734755,26.8892765547084,1.76037430763245,-3.11820363998413,-2.43661212921143,38.1686099689324,44.8866918290032,110.284079735529,1.05276072025299,-8.42842864990234,0.0453886017203331,-95.7156960472416,-67.8054257399268,30.0230151572344,2.16785550117493,-10.1037216186523,-0.145045325160027,205.358571283868,24.4733498528157,46.6616906546548,-2.09095001220703,-8.9271354675293,-1.64777505397797,129.000444136954,-43.8851367947746,-9.5440205489711,-2.52679777145386,-10.8836107254028,-0.680550813674927,-167.558692492373,45.3783117699877,-73.6892170683534,-1.25524699687958,-7.90742969512939,4.74034452438354,-31.2706858129206,25.079959443572,16.4741157497473,-1.52802979946136,-11.9700498580933,4.75433921813965,11.0062684276225,11.1562218157555,4.25463923966954
35.425,3.15117168426514,-9.43563842773438,-3.64865708351135,-21.3014714739643,-40.2326897210157,26.3756463291234,1.74284291267395,-3.35724854469299,-2.23301386833191,44.9246130392751,31.5594388902721,120.848695324813,1.50761604309082,-8.61706829071045,-0.481118321418762,-99.8782455538792,-74.3654262867522,27.2806720073595,2.06538271903992,-9.45899963378906,0.113090395927429,204.986134728805,30.4201326008627,43.7064112347629,-2.2861156463623,-8.83123970031738,-1.89017581939697,135.381739614335,-41.4451029402063,-10.1958886807152,-2.58204245567322,-10.8436574935913,-0.511041462421417,-170.229870193738,57.4476624296559,-73.2491479801295,-1.07010400295258,-7.83164930343628,5.07462596893311,-26.9559853047846,18.6875512484112,16.8698278819538,-1.59045732021332,-11.542797088623,4.62911558151245,24.4576284648936,4.6997669367475,5.28254855881061
35.43,3.46563506126404,-9.54337596893311,-3.53528666496277,-20.1053516710387,-33.2849085991574,25.5884601970903,1.81784379482269,-3.61148929595947,-2.13851618766785,51.6135163312115,21.4732712221576,130.197694336187,1.89639472961426,-8.85642528533936,-1.00973892211914,-103.781992362676,-80.8389839594419,24.5674100954232,1.86339473724365,-9.01068496704102,0.375372499227524,206.250033913959,31.6985835040436,40.8157522346084,-2.66526246070862,-8.78449535369873,-2.07633328437805,142.422954308944,-39.6497433206388,-10.6580517233569,-2.60161519050598,-10.8982572555542,-0.409130960702896,-171.645344936953,67.5610552318021,-72.8136004771361,-0.847719550132751,-7.72713947296143,5.30517530441284,-20.6107173677279,11.9519619059504,17.8837011623505,-1.62947416305542,-11.0614728927612,4.46715402603149,38.0384812048653,-2.46251798354232,7.44094639314258
35.435,3.30868649482727,-9.58532333374023,-3.59145140647888,-19.5365557150748,-24.125985214649,25.3840172673062,2.15445303916931,-3.7802357673645,-2.16736197471619,58.8555693232706,10.0029674262873,141.676728821364,2.26847720146179,-9.09729671478271,-1.40323901176453,-106.898013454495,-87.2869898944466,22.5513875543401,1.7730758190155,-8.53409957885742,0.495847016572952,208.087778272421,33.4253202130199,39.0185040677354,-2.92014455795288,-8.76978778839111,-2.36720895767212,146.583345475804,-40.2080771343415,-11.3142510488084,-2.6345386505127,-10.9501609802246,-0.34668093919754,-171.378380163054,73.8097972279608,-72.2560179842421,-0.653925836086273,-7.62682962417603,5.38174676895142,-13.0423034229736,5.72159482620632,19.6544755160005,-1.63876950740814,-10.3032512664795,4.21888828277588,49.7738185386469,-9.90801669776671,10.5715157878937
35.44,2.90422344207764,-9.62440586090088,-3.6031289100647,-19.3607398156495,-13.9761729900747,25.4037821272169,2.68214225769043,-3.93950390815735,-2.25648283958435,64.8083182415577,-0.903734238874416,152.457977520554,2.55416369438171,-9.32195854187012,-1.82948470115662,-109.051879458312,-90.9352739679064,21.2589142727932,1.72655177116394,-8.1044750213623,0.571093261241913,209.926738404556,35.2038092653375,37.4626552766982,-3.04064035415649,-8.77602767944336,-2.65885162353516,148.405639946363,-42.7186019562389,-12.1018640676647,-2.67187762260437,-10.9679574966431,-0.28628671169281,-170.104372297929,76.6608069799833,-71.5853548794494,-0.478032499551773,-7.51284837722778,5.34582757949829,-5.21501805159987,0.188620596468581,21.8140635107954,-1.59224307537079,-9.43518352508545,3.96087718009949,59.2616787109412,-16.854487277078,14.0159503042535
35.445,2.31935214996338,-9.68765258789063,-3.50413155555725,-19.4512278693212,-3.47441563172158,25.4724443113957,3.38893866539001,-4.13138294219971,-2.39840221405029,69.4671014819642,-10.756479018165,161.953716316056,2.73970675468445,-9.50688648223877,-2.30582904815674,-110.091140551854,-90.7669849369464,20.7653613882735,1.65355205535889,-7.75086259841919,0.616690576076508,211.367375564673,37.1498326127116,36.2812033050153,-3.03546404838562,-8.79860687255859,-2.89518618583679,148.017384673183,-46.8453100452068,-12.9854420981333,-2.7126624584198,-10.9467439651489,-0.218267112970352,-168.075095774761,76.1708433598725,-70.8035509364822,-0.307175815105438,-7.3726372718811,5.20154047012329,2.46582998495954,-4.52525176147227,24.2445009495798,-1.48088872432709,-8.50193405151367,3.7193329334259,66.24364834469,-22.8690442847118,17.5816411689486
35.45,1.64333558082581,-9.83827304840088,-3.19960308074951,-19.4512278693212,5.61779644138964,25.1304294188965,4.28949928283691,-4.47627353668213,-2.62129878997803,74.6526357413512,-19.2146898806272,170.249158647954,2.83065319061279,-9.56002140045166,-2.74538493156433,-109.478896055032,-84.8109438674794,21.3961618015227,1.29402244091034,-7.53361225128174,0.608763515949249,211.117991697698,40.2002292469852,36.9467949943493,-2.9554009437561,-8.82711219787598,-2.91847896575928,145.471008188332,-51.4216733928988,-13.8621754252799,-2.76130533218384,-10.8950567245483,-0.134847894310951,-165.790110629447,72.1379103531143,-69.9106881176106,-0.0920154824852943,-7.16545534133911,4.92664480209351,9.07306705286767,-8.04421516762114,26.7633808003794,-1.28877913951874,-7.54488182067871,3.54002404212952,69.9157766085423,-26.7137833817214,21.0280521712995
35.455,1.00395750999451,-9.97211742401123,-3.01035499572754,-19.6738681306015,11.6043308904062,24.2993234629529,5.1923770904541,-4.89183902740479,-2.97219347953796,82.8599276518219,-24.6925101327139,178.223295220918,2.81833624839783,-9.52463626861572,-3.03405785560608,-107.31799495637,-73.7279374107582,22.795402892628,0.91359931230545,-7.36541318893433,0.539486050605774,209.531147508207,41.2230295846271,37.8765954762523,-2.86490368843079,-8.89123725891113,-2.7369658946991,142.209101086031,-54.8804470376474,-14.4930347489107,-2.80240035057068,-10.8259410858154,0.0462235920131207,-163.066299490337,66.5642027828171,-69.1856088957004,0.0687724873423576,-6.98224401473999,4.58511686325073,13.5154400182905,-10.3946087657485,28.7582690286232,-1.07741701602936,-6.62294864654541,3.39567446708679,71.4024560738548,-28.6976681752122,24.1492607917931
35.46,0.365232735872269,-10.0847272872925,-2.90305161476135,-19.923082950395,14.3898732792341,23.2094728657763,5.96417856216431,-5.2362813949585,-3.35847043991089,93.2646963239609,-27.8554426712998,186.139675714259,2.75523376464844,-9.44109725952148,-3.24769163131714,-104.103946989583,-60.5915506932886,24.2724073949812,0.535501003265381,-7.24131298065186,0.472509056329727,207.172464621748,42.1930872014982,38.2923149400851,-2.76267147064209,-8.94890213012695,-2.45146250724792,139.101173768378,-57.3292064588804,-14.8551986994615,-2.85680174827576,-10.7495031356812,0.344514280557632,-159.218580723302,60.5032909888337,-68.6614396882262,0.18963386118412,-6.81850290298462,4.21356296539307,16.4359810960638,-11.9821598798183,30.3928391649393,-0.860041737556458,-5.77229881286621,3.25003004074097,71.3453830131502,-29.7053293985588,27.0146054033362
35.465,-0.297339975833893,-10.1868591308594,-2.86099481582642,-20.0460929497997,13.792984755214,21.9790484377443,6.53902578353882,-5.44220161437988,-3.71601939201355,105.462000332445,-28.5963371962332,194.143072817627,2.65712261199951,-9.32403659820557,-3.39248180389404,-100.116516703075,-46.6521010690601,25.5431897032714,0.168034344911575,-7.15720081329346,0.422244697809219,203.966496768749,44.0120826906884,38.2058310848144,-2.63416504859924,-8.97706985473633,-2.09760880470276,136.569045058136,-58.7526315422894,-14.9834491615068,-2.93326282501221,-10.6628885269165,0.756104469299316,-153.855871356845,54.2864801270447,-68.3815112152823,0.276124089956284,-6.67053890228271,3.82927513122559,18.0484436175839,-12.9710952857817,31.7645358106692,-0.642524898052216,-5.01448631286621,3.09040498733521,69.903673513333,-30.0628522355685,29.6100448445425
35.47,-1.08097290992737,-10.3821506500244,-2.82178664207458,-19.3532112396369,9.424487115854,20.9846207059147,6.78950595855713,-5.37814903259277,-3.77780270576477,117.929677379225,-24.806562339022,202.681396676411,2.51859903335571,-9.19153213500977,-3.32817912101746,-96.4943171220555,-33.9732072523871,26.215825025187,-0.18677744269371,-7.08277273178101,0.328374683856964,197.946846147542,48.4757445019806,39.9810348161411,-2.36958289146423,-8.90877914428711,-1.70928084850311,135.557767249624,-58.9848306533131,-15.2859411643737,-3.04112935066223,-10.5173292160034,1.16652321815491,-146.014363397185,47.7887504148824,-68.5509408878337,0.342942535877228,-6.51631164550781,3.47743248939514,18.6749666248655,-13.7501825210065,33.2929101657701,-0.436932742595673,-4.40467119216919,2.91533732414246,66.9717260196459,-30.1902967352918,31.6965481076709
35.475,-1.7052880525589,-10.6238794326782,-2.73867654800415,-18.1503483324532,4.11178455251825,20.3295014041256,6.83177995681763,-5.21301698684692,-3.55261707305908,128.368952167051,-18.0579034295844,211.784167368206,2.29027271270752,-9.09480381011963,-3.16739940643311,-93.7244841683186,-24.1441808385979,26.4383730789135,-0.259171575307846,-6.99590444564819,0.239306107163429,189.781559900467,50.4557548706648,40.7277179263961,-2.06359529495239,-8.80197620391846,-1.32835519313812,135.318860892836,-58.6962483306909,-15.9489886082419,-3.15821433067322,-10.3361921310425,1.39029359817505,-138.360603677431,40.450087812108,-69.1668053849154,0.368764221668243,-6.40446090698242,3.16192483901978,17.8085502984602,-14.1524234602859,34.4801541378692,-0.261451065540314,-3.93376016616821,2.76839470863342,63.3217480592719,-30.2324150968087,33.139418739647
35.48,-2.10992622375488,-10.8213205337524,-2.63316440582275,-16.6823818779193,-1.74988870238515,19.6464722418406,6.72826671600342,-5.02516794204712,-3.13892793655396,136.104906383277,-11.1845577093009,221.200512044795,2.00778722763062,-8.99934864044189,-2.9407639503479,-91.6675180582559,-17.2399472953404,26.4009248592416,-0.537626564502716,-6.92042016983032,0.108500853180885,179.598567470678,51.8043688920946,40.7642560233611,-1.79731607437134,-8.70847988128662,-0.973850548267365,135.310951533777,-58.2615136202088,-16.855754277169,-3.28888559341431,-10.151686668396,1.48697316646576,-131.760550901312,32.5024626184083,-69.9775693299634,0.362299531698227,-6.33062505722046,2.88278150558472,15.9615749393349,-14.2877337766121,35.5069023248514,-0.0914981365203857,-3.59471106529236,2.65628981590271,59.3556962648665,-30.0686408208901,34.0690006554965
35.485,-2.2545382976532,-10.9182891845703,-2.52756667137146,-15.0806991024567,-8.04115524287298,18.7322070252048,6.50678634643555,-4.85919570922852,-2.58888339996338,140.56704164729,-5.86867057026468,230.823292358859,1.69221723079681,-8.88159656524658,-2.66220736503601,-90.2786332414797,-13.5356172508724,26.2066691566046,-1.27082228660583,-6.87001514434814,-0.0916365683078766,167.423277161888,52.9366878979831,40.2503013637906,-1.61387610435486,-8.65485095977783,-0.65581887960434,135.265039002176,-57.8841593289439,-17.9321698922482,-3.43368577957153,-9.98304653167725,1.49143087863922,-126.710828123382,24.153656018524,-70.832627051779,0.327837496995926,-6.29695796966553,2.64535880088806,13.3807563718207,-14.1786855376446,36.4533821287075,0.0831673815846443,-3.39280986785889,2.58482050895691,55.2863685951158,-29.6157139015536,34.5257388203899
35.49,-2.20593428611755,-10.8096933364868,-2.64174270629883,-13.6490111976993,-15.8189964479582,17.4433486212761,6.22087955474854,-4.79605960845947,-2.09424233436584,140.601465800707,-5.5886503166539,240.794057150757,1.43846321105957,-8.64375686645508,-2.35749220848083,-89.3640572512366,-14.346691115754,26.1671172386683,-2.08839011192322,-6.85348796844482,-0.373976320028305,154.51565397029,44.3594592816861,39.7451542331548,-1.47933959960938,-8.61355209350586,-0.348092824220657,135.251351303079,-57.8148260786791,-18.7112468821893,-3.54730415344238,-9.87385749816895,1.59260714054108,-122.870868451244,17.5492097232221,-71.2156982113791,0.292118459939957,-6.34561920166016,2.50944232940674,10.6199273149571,-13.4542944572933,37.2082887867232,0.218892201781273,-3.35824155807495,2.55974245071411,51.4415185075323,-28.7260373659299,34.5127956119127
35.495,-1.97044026851654,-10.6003065109253,-2.83931422233582,-12.1795574694736,-23.6236521219513,16.5130512431109,5.8582820892334,-4.80235052108765,-1.79342782497406,139.978429604997,-8.16955340775911,249.440994677724,1.1095244884491,-8.41390228271484,-2.0810546875,-89.1259295360133,-18.3200221842674,26.0361312858604,-2.25130724906921,-6.83149814605713,-0.579683244228363,145.210012999768,32.2282475987052,38.6886844779993,-1.3517290353775,-8.59904289245605,0.0497952550649643,135.548218645165,-58.130032478686,-19.2944699052275,-3.60710430145264,-9.78474521636963,1.76425611972809,-117.178424872415,12.1179867292005,-71.2509761384423,0.30455482006073,-6.46755933761597,2.42890119552612,8.13237583433308,-12.0343177656415,37.7362350888085,0.319467782974243,-3.4289755821228,2.56547927856445,47.727066976488,-27.4219117816589,34.1949595890753
35.5,-1.53189420700073,-10.3908853530884,-3.0114278793335,-10.8584964311556,-30.3542998225475,15.9458637966966,5.38689947128296,-4.88864088058472,-1.68712270259857,139.883913447262,-12.7200704658581,256.825904491368,0.742818713188171,-8.20303153991699,-1.83929145336151,-89.6056547025583,-24.7921745455354,26.0497780038221,-2.15364193916321,-6.7559494972229,-0.740540504455566,137.553261657157,20.7574793499713,38.0206885620774,-1.25790178775787,-8.61126041412354,0.479589283466339,136.158578009775,-58.9030596285697,-19.8663087104666,-3.63734364509583,-9.68184280395508,1.91473734378815,-108.707876980765,6.39944585132684,-70.9567998908898,0.360082775354385,-6.63075017929077,2.38452649116516,5.94232476895315,-9.92945580779774,38.0265932606149,0.392912805080414,-3.5895528793335,2.58271050453186,44.2763188040141,-25.8736001043708,33.6541622860666
35.505,-0.86500084400177,-10.261622428894,-3.06988596916199,-9.84308038178011,-35.0690086518781,15.7676385480416,4.77452564239502,-5.06824398040771,-1.78777837753296,141.294224567465,-18.6513836892087,262.920755495337,0.365814983844757,-8.02105903625488,-1.63941633701324,-90.8801543413043,-33.388099097138,26.4048044066902,-2.0930871963501,-6.58528232574463,-0.879098892211914,130.09184006443,13.3419361378993,38.5129539559386,-1.22130250930786,-8.6517915725708,0.896875619888306,137.103944492797,-60.2202821005742,-20.5728900725571,-3.65551900863647,-9.53735065460205,1.96981608867645,-96.5524352017032,-0.786473657925343,-70.3276096947374,0.457310259342194,-6.81222581863403,2.36324429512024,4.08727057670026,-7.10629060258723,38.0563626401124,0.443948328495026,-3.83317017555237,2.59676265716553,41.2115138856865,-24.2016671257473,32.9419750462148
35.51,0.0956816747784615,-10.1488618850708,-3.0936975479126,-9.23174430011812,-37.5605660384504,15.3142164399903,4.30244588851929,-5.42915630340576,-2.31275916099548,146.582648796509,-25.9317437972278,270.027075553115,0.0318480581045151,-7.94824934005737,-1.64070808887482,-93.0951027268694,-42.9747921067224,27.8067417149703,-2.38547921180725,-6.25775003433228,-0.858064591884613,120.130159424128,1.15515467616135,40.0994156548358,-1.27546942234039,-8.68803119659424,1.26567995548248,138.609864601001,-62.3263436103909,-21.6271434313269,-3.60951852798462,-9.26833057403564,1.80352091789246,-83.4017187473549,-9.54438937918628,-69.1564030068095,0.515822052955627,-7.01484394073486,2.38276624679565,2.38456652864884,-3.55662400201527,37.6659626875328,0.446175277233124,-4.15589046478271,2.529865026474,37.5508637547344,-22.3326524537178,31.9941633554705
35.515,0.957658350467682,-10.0051984786987,-3.11516833305359,-8.91718676808235,-39.0570878063568,14.7576977490595,4.09679365158081,-5.76172494888306,-2.83708143234253,153.63701843546,-31.6615843693096,276.305276155164,-0.208539396524429,-7.97954750061035,-1.726842045784,-95.3890422501857,-50.9804602479889,29.4203465856292,-2.61285042762756,-5.87466526031494,-0.840622961521149,110.819525585323,-12.8597649098578,41.2632491535547,-1.3664368391037,-8.75712108612061,1.56635630130768,140.268289172994,-64.6991513280534,-23.2198957344497,-3.48323273658752,-8.94361591339111,1.51565313339233,-72.0698270274676,-19.5202366856004,-67.3795634451765,0.545773923397064,-7.21553421020508,2.46589779853821,0.658863259310437,-0.0604107753828348,37.158124462364,0.468401700258255,-4.45813083648682,2.44457626342773,32.0585139827358,-19.5204723271268,30.6075393313095
35.52,1.64243805408478,-9.8603048324585,-3.14233207702637,-8.7955129244341,-39.1875888157337,14.3849487128425,4.12622880935669,-6.03194570541382,-3.25386834144592,161.376674614216,-36.0770899318586,282.070529550545,-0.367777556180954,-8.07438468933105,-1.85757029056549,-97.6595473944597,-57.5604630037987,31.231026319505,-2.68337345123291,-5.47025918960571,-0.814671158790588,102.517068649146,-27.0800710589835,41.9943662626912,-1.47560262680054,-8.84547519683838,1.81157302856445,141.910826724977,-67.090489348934,-25.37697021963,-3.279780626297,-8.5950345993042,1.15205562114716,-62.9695288641527,-30.4089925623264,-64.8572838677175,0.570114076137543,-7.40970706939697,2.60283017158508,-0.952434234708547,3.32181853349292,36.5439777578586,0.487010538578033,-4.74804973602295,2.35485315322876,25.165913959182,-15.8989762555918,28.8053358621937
35.525,2.03777289390564,-9.75136661529541,-3.1857213973999,-8.75102704859616,-37.3808876670494,14.570531782781,4.36946058273315,-6.19230031967163,-3.42056632041931,168.496627729578,-39.3739095461025,287.679344293176,-0.455241560935974,-8.18667888641357,-1.98575508594513,-99.7761478861658,-62.8003109274656,33.2355912182553,-2.4696102142334,-5.08589744567871,-0.764348685741425,95.7490342005804,-39.4827212897699,42.2468134695095,-1.58099448680878,-8.93750381469727,2.01298046112061,143.324675883169,-69.18989142431,-28.1742229677899,-2.99714589118958,-8.26073837280273,0.764500558376312,-56.7911275711613,-41.897657614233,-61.3566001822217,0.617243111133575,-7.59109687805176,2.78537726402283,-2.26788811460481,6.50524420090986,35.8293453102839,0.472050935029984,-5.03494930267334,2.27789068222046,17.3074398096239,-11.5740791287985,26.5847542781106
35.53,2.296471118927,-9.68599891662598,-3.23368191719055,-8.08284842511403,-35.8738918040507,14.9031210142256,4.62092065811157,-6.31995916366577,-3.23564291000366,173.473499709821,-40.1796225662593,292.973232673556,-0.554283738136292,-8.30362701416016,-2.03445196151733,-102.005794838825,-68.6977148229081,36.1073305944089,-2.29667854309082,-4.83915758132935,-0.620672225952148,89.6010033437335,-47.3533497609561,42.4210891612769,-1.68573713302612,-9.0389928817749,2.16084146499634,144.193653530513,-71.0288925375793,-31.4159161252426,-2.66704630851746,-7.95699787139893,0.502171337604523,-53.7570175229637,-52.7387934120657,-56.8659352180459,0.685792565345764,-7.69161510467529,2.92999291419983,-3.21246058813526,9.23433123426626,34.8173059356794,0.41046479344368,-5.42891931533813,2.19967579841614,9.1954196465647,-6.80705361174663,23.6852194471298
35.535,2.43454599380493,-9.64974880218506,-3.23515605926514,-7.58485250253923,-34.2866241428315,15.2256015656985,4.84799861907959,-6.52472305297852,-3.01829147338867,177.531465359887,-40.2812421207307,297.899602235077,-0.691281855106354,-8.45014953613281,-2.03613758087158,-103.438010375696,-73.3752264420188,38.9530196290679,-2.24108934402466,-4.56226301193237,-0.466258108615875,82.0663143117798,-54.9379435700806,42.7326584855508,-1.78674530982971,-9.15153408050537,2.27585506439209,144.356826749785,-72.9703328280204,-34.8532088250515,-2.33121943473816,-7.69148302078247,0.337338238954544,-51.6848098457681,-62.3380847055742,-52.0566692498457,0.787591814994812,-7.77090311050415,3.04059290885925,-3.78371519875691,11.7129983463274,33.5438513158763,0.321793079376221,-5.8017258644104,2.15130710601807,1.57504012850106,-2.21540195281467,20.4785976035178
35.54,2.44873476028442,-9.6309700012207,-3.19471144676208,-7.4669207487825,-32.3322884552374,15.6291479248831,5.05134344100952,-6.82018184661865,-2.86744475364685,181.176546074626,-40.4398596038259,302.446650410851,-0.849437773227692,-8.59650039672852,-2.00164198875427,-104.163519899523,-76.7565252510119,41.7872578515835,-2.19832348823547,-4.24159526824951,-0.293346971273422,73.4475991264642,-62.0780115925476,43.0891909451309,-1.86500120162964,-9.25162982940674,2.35384321212769,143.589851147506,-75.1372444931528,-38.4087218541096,-2.00727844238281,-7.48532676696777,0.270084232091904,-49.8792322632023,-70.3213873924035,-47.0398748139038,0.93319445848465,-7.84525394439697,3.13258171081543,-3.99411405349727,13.8708378126948,32.1628485374023,0.208280742168427,-6.14201879501343,2.13758969306946,-5.27513353469291,1.85945603572956,17.0957022378062
35.545,2.31812810897827,-9.61095237731934,-3.12196564674377,-8.08316944400502,-29.4688340985471,16.3115879833522,5.23311710357666,-7.23007202148438,-2.94395589828491,185.195128853938,-41.9154365966426,306.557550026985,-0.99637359380722,-8.68367958068848,-1.94425809383392,-104.375727046847,-78.758187319365,44.7305332140092,-1.96364176273346,-3.8644015789032,-0.0765935704112053,64.415425269931,-67.9795136014921,43.2977849223831,-1.88240098953247,-9.29327774047852,2.38081359863281,141.386664347691,-77.7482550581194,-41.9744904122065,-1.7254536151886,-7.38401126861572,0.313757061958313,-47.2807072840385,-75.8722343195487,-41.9334853715243,1.14596211910248,-7.93873977661133,3.23277449607849,-3.82954064544582,15.5192074924553,30.9507153559676,0.0695094615221024,-6.43836688995361,2.16800355911255,-10.824660527781,4.78122121146814,13.7267011844136
35.55,2.13522577285767,-9.65686988830566,-3.0971155166626,-8.49453466224196,-26.0574158628615,17.3003107996776,5.35839223861694,-7.75842523574829,-3.19439506530762,190.361989376134,-44.019838370491,309.860465585063,-1.07649123668671,-8.65973091125488,-1.89588248729706,-105.037306000043,-80.0871099054177,47.9494886717149,-1.67845225334167,-3.49686717987061,0.107806585729122,53.5501242628148,-72.8347194220498,42.2339317327348,-1.86345505714417,-9.26643657684326,2.33720469474792,136.995576711425,-80.9311778528587,-45.1866634920664,-1.48387479782104,-7.36316585540771,0.594044089317322,-41.4073524846636,-78.232781847651,-36.9412249750811,1.35921704769135,-8.00240325927734,3.30532789230347,-3.30191685635538,16.5304648103999,29.7804170831993,-0.0560977123677731,-6.67834424972534,2.24818229675293,-14.382283231519,5.59194076028655,10.4985796128418
35.555,1.88394796848297,-9.78088474273682,-3.07266545295715,-8.48701035509755,-22.8705640018021,18.3714022822988,5.41568517684937,-8.37982559204102,-3.47712278366089,196.296248972338,-45.6693597909003,312.650925710093,-1.07051014900208,-8.65125274658203,-1.88436925411224,-106.157873665465,-81.4607224192098,51.0340533273114,-1.3761283159256,-3.20357322692871,0.255016654729843,41.0064818520864,-76.23562770415,40.5461100265546,-1.84910380840302,-9.2187328338623,2.21990466117859,130.964383070521,-84.0248983770377,-47.8892703088974,-1.20926749706268,-7.37589931488037,1.08900856971741,-33.1860142901648,-79.2668656578017,-32.3196150392324,1.54093766212463,-8.04321670532227,3.37125635147095,-2.33646556174926,17.2756230809226,28.3979543517902,-0.171424835920334,-6.88613748550415,2.35754299163818,-16.6850644347158,5.06988549636038,7.44977868151306
35.56,1.55558395385742,-9.96002388000488,-3.07180643081665,-8.15302605751497,-20.401611126288,19.461869304048,5.380784034729,-9.0681791305542,-3.77421689033508,202.998003265198,-46.7508143780397,315.139983247429,-0.951434016227722,-8.68416404724121,-1.92519962787628,-107.80121717977,-82.9540954699089,53.9394108945597,-1.0665158033371,-2.99854016304016,0.383796483278275,26.9158972169985,-78.0574030803325,38.3545516238023,-1.84060108661652,-9.15402412414551,2.02884554862976,123.333067352379,-86.775224310505,-49.972225288752,-0.902580201625824,-7.42040491104126,1.83653604984283,-23.051386429889,-79.8081171683902,-28.0855688199105,1.68976783752441,-8.06104946136475,3.43739652633667,-0.897549822746087,17.6845140631327,26.9220068212111,-0.273774653673172,-7.06316041946411,2.48901557922363,-17.9253038445851,3.53061506854268,4.60765543248753
35.565,1.1236320734024,-10.1280450820923,-3.18141984939575,-7.80961439133048,-19.8700550692263,20.4716444709427,5.17904853820801,-9.76290702819824,-4.08635234832764,210.675846231966,-47.2773639064398,317.806707665456,-0.637458205223083,-8.79159355163574,-2.05804014205933,-110.196926521719,-84.5355916212795,56.668020241561,-0.765459299087524,-2.90709447860718,0.548803687095642,11.4636861963382,-77.9417269965492,35.727425227489,-1.82723891735077,-9.06466770172119,1.75825428962708,113.873303163235,-88.6518665962902,-51.1156672577039,-0.590300738811493,-7.51136302947998,2.97777652740479,-11.7570513589267,-81.5590703130688,-24.230246344782,1.81041514873505,-8.05089569091797,3.51601219177246,1.13435237454872,17.3875374380206,25.781669173237,-0.353072017431259,-7.20193099975586,2.63152718544006,-18.2977933336136,1.51664073043698,2.05661243432974
35.57,0.608697772026062,-10.2699241638184,-3.38388228416443,-7.84172567193965,-21.2466199322872,21.4383006536071,4.85629272460938,-10.2132625579834,-4.28945684432983,218.280688136885,-47.7150321831704,320.860567205638,-0.108625516295433,-8.97766208648682,-2.26022815704346,-113.374214410393,-85.4644153861312,59.0406128082646,-0.50648421049118,-2.83382129669189,0.755651473999023,-4.07287339170351,-76.9850702108297,32.6821478199984,-1.82663869857788,-9.04250812530518,1.43008589744568,103.303681045289,-88.9985806589384,-51.0873356330267,-0.287267237901688,-7.63048982620239,4.29866552352905,-0.0654987660564984,-86.4709120622243,-21.0175575856398,1.89095973968506,-8.00183486938477,3.61259603500366,3.8663020042193,16.6971487469049,25.0526062434934,-0.437656581401825,-7.33818292617798,2.76305389404297,-18.1485554077961,-0.490520654054191,-0.135244402332651
35.575,0.184004902839661,-10.4063863754272,-3.55309343338013,-7.80212679645286,-23.6485447463814,22.2609064391287,4.43227958679199,-10.4783420562744,-4.30413246154785,224.484426016602,-48.2264118614239,323.481201507146,0.513483881950378,-9.18309593200684,-2.49794983863831,-116.99380485915,-85.8106035242133,60.8733096569299,-0.30746254324913,-2.75933456420898,0.984311401844025,-19.4394560382867,-75.3639862830297,29.5615607467192,-1.84549117088318,-9.1099739074707,1.07924902439117,92.8294425191018,-87.9640665468699,-50.4157060564664,0.0433579683303833,-7.71768236160278,5.33427238464355,11.6199165283185,-93.6791453726081,-18.6252138194038,1.9495096206665,-7.93883943557739,3.69191765785217,7.08062317857315,15.8736140556562,24.5780361622244,-0.551840782165527,-7.47943115234375,2.87398290634155,-17.6229433228597,-2.63969479815974,-2.09632486171149
35.58,-0.0947480946779251,-10.546404838562,-3.62979102134705,-7.51818729491896,-26.9248174440545,22.8461887642016,3.88177752494812,-10.5963220596313,-4.10240459442139,228.807703534789,-49.0363049573527,325.363492359374,1.18701934814453,-9.35793304443359,-2.74138069152832,-120.820418341649,-85.4964626337169,62.0914807255909,-0.161601990461349,-2.68197178840637,1.22267735004425,-34.5431489725842,-73.0198312089355,26.4673928451496,-1.88537061214447,-9.28810596466064,0.734773635864258,83.1466726535574,-85.5506465244026,-49.3788423593234,0.380378246307373,-7.76611232757568,5.90485191345215,22.4585891891818,-102.489720571709,-16.8681459478707,1.98157525062561,-7.86591768264771,3.74276041984558,10.6992608159405,15.0260797872114,24.3209256437504,-0.7090864777565,-7.62749052047729,2.95873808860779,-16.7317214569362,-5.01301862199133,-3.83024757002491
35.585,-0.140859156847,-10.7111234664917,-3.4635157585144,-6.63152970290835,-31.2534771513068,22.8597962085756,3.06727766990662,-10.686261177063,-3.63312816619873,230.34154545632,-51.0311504969141,325.903651039696,1.83825826644897,-9.32828998565674,-2.88515257835388,-124.095357444887,-84.0894436646943,62.5307780024386,-0.0193327013403177,-2.61336350440979,1.43428230285645,-49.2046725354881,-69.5023179373248,23.5314957945749,-1.94693291187286,-9.65267276763916,0.497223109006882,76.2985678973517,-81.6204122420047,-48.7458887289383,0.588038265705109,-7.80401611328125,5.63652467727661,28.9310557391515,-110.528258998357,-14.7050182075385,1.94809567928314,-7.77680540084839,3.74800753593445,14.5756356416383,14.4036429406009,24.2652391114472,-0.947903096675873,-7.78331613540649,3.00091290473938,-15.3797794258332,-7.8449717193427,-5.22548915848432
35.59,-0.142654910683632,-10.9042148590088,-3.24749279022217,-5.52066688252382,-35.7529189085661,22.6372976737206,2.23634028434753,-10.8336534500122,-3.0650463104248,230.501235279115,-56.8443586504578,324.876609154579,2.32296514511108,-9.21480655670166,-2.88405346870422,-125.848202551966,-82.3428959920303,62.3785672367849,0.0976675003767014,-2.55334782600403,1.59616935253143,-63.497878147399,-64.5290113158284,20.6550128520428,-2.03446221351624,-10.0696706771851,0.369174212217331,74.6449586087241,-75.8894327358788,-49.1578720792952,0.339900583028793,-7.87677717208862,4.10814380645752,27.461900831702,-112.158550021158,-10.2654439121281,1.8291003704071,-7.71572065353394,3.73370289802551,18.5391124547266,14.4296420556765,24.2348003734111,-1.26018524169922,-7.92421245574951,3.04270005226135,-13.5348334866651,-11.0318218728548,-6.27423311591487
35.595,-0.0156436655670404,-11.0058040618896,-3.09328436851501,-4.52497471192406,-41.2415086614266,22.2697327510836,1.49505245685577,-11.1015682220459,-2.54247355461121,229.303110815668,-66.241476344534,322.045550385122,2.65669679641724,-9.06966590881348,-2.7983455657959,-126.623565626546,-80.6615151542374,61.8217428948887,0.162040546536446,-2.52648448944092,1.74864816665649,-77.5272847780912,-58.1632271980523,17.624060058789,-2.11938452720642,-10.4102811813354,0.264210104942322,77.7272453962325,-69.0252360539885,-50.548891330187,0.101758353412151,-7.83458566665649,1.8070867061615,21.6340487525778,-109.877915706345,-5.2877207195596,1.65006613731384,-7.67086839675903,3.71816205978394,22.6689026665575,14.8975766081668,24.3075692088284,-1.60963928699493,-8.03054809570313,3.10739326477051,-11.3750670531782,-14.4808787197354,-6.95318166705764
35.6,0.292159974575043,-10.9588117599487,-3.01981711387634,-3.7674542258904,-47.8211220964536,21.810745746406,0.914422929286957,-11.5240087509155,-2.1548445224762,226.761775010425,-79.5557621691257,317.241031398395,2.84883332252502,-8.90506458282471,-2.63816905021667,-126.529431959405,-79.1366139503296,60.8549227876843,0.153160139918327,-2.53829264640808,1.91850674152374,-91.184302665045,-50.4759517400405,14.2965686263035,-2.17913413047791,-10.6085834503174,0.133531555533409,85.4119117219813,-61.2669061380411,-52.9038415182645,0.0957422852516174,-7.62941789627075,-1.04628849029541,12.6513118052572,-105.177270236515,-0.607207979360659,1.41640555858612,-7.63895416259766,3.7102963924408,27.0266367815592,15.7654375195816,24.5253105169265,-1.98251461982727,-8.09457874298096,3.20741653442383,-9.0331454509426,-18.0605911090228,-7.220881966953
35.605,0.932085335254669,-10.6591091156006,-2.85625457763672,-3.27002819722447,-53.8089372059396,21.4754244392934,0.748368799686432,-12.1694211959839,-2.20939159393311,223.289443440174,-99.2020773166154,310.209706817704,2.96937346458435,-8.68297100067139,-2.34007382392883,-125.17616657915,-77.3695415592097,59.0222122786406,-0.00559273175895214,-2.55709505081177,2.21155142784119,-103.378751654457,-42.2090186177372,10.1628100745649,-2.11241865158081,-10.5105657577515,-0.181380376219749,96.7081225336445,-52.9746774101467,-56.0383655925451,0.815468490123749,-7.31781196594238,-3.83623480796814,1.3808302094758,-104.093988573773,1.7390076774288,1.11637008190155,-7.62199974060059,3.73133707046509,31.845941420292,17.1545169967491,24.9819530591715,-2.35932087898254,-8.11697387695313,3.37237977981567,-7.15906576675663,-20.9078886532314,-6.90222546764158
35.61,1.78418684005737,-10.288893699646,-2.55498433113098,-3.5295004670475,-56.5903097642792,21.8352797859047,0.938060998916626,-12.8936586380005,-2.61354660987854,219.607793892618,-122.723609572739,301.735518435226,2.95405888557434,-8.56929397583008,-2.02062463760376,-122.331898223838,-75.7281924601423,56.8841649929407,-0.275518417358398,-2.64817500114441,2.58163547515869,-113.745858663512,-32.6904464998399,5.69814166414379,-2.04545378684998,-10.2718191146851,-0.537791132926941,106.900199115029,-45.5934319929919,-59.3092919596454,1.67312741279602,-7.06988906860352,-6.15681457519531,-10.7528316971482,-101.078801564671,3.19184366212557,0.810244739055634,-7.61670160293579,3.77227425575256,36.7474115271928,18.6837126820977,25.6938209876796,-2.71240282058716,-8.07785606384277,3.60199213027954,-5.67656595032937,-22.8907779466508,-6.09394472324368
35.615,2.77121257781982,-9.89342784881592,-2.21712684631348,-4.45703610091041,-57.5970181762366,22.8849603330252,1.36385202407837,-13.6001758575439,-3.15965151786804,215.766072031675,-146.001522641546,292.185028843337,2.84444546699524,-8.5770206451416,-1.72566437721252,-118.562016292585,-73.8730652702426,54.6772728155016,-0.593020021915436,-2.884761095047,3.00417876243591,-122.329890148222,-23.068689006604,1.09005774400754,-1.99980235099792,-9.92703247070313,-0.922346174716949,114.466026979409,-39.8949539420315,-62.1880800910224,2.45224595069885,-6.99811410903931,-7.97382307052612,-18.0534552688874,-93.8343204403616,3.96310926353365,0.524816572666168,-7.60257959365845,3.81309795379639,41.4532206200349,19.9229907428412,26.5853058158861,-3.00669002532959,-8.01226997375488,3.84162187576294,-4.27116787057415,-24.4872202594727,-4.74282871814349
35.62,3.84047412872314,-9.49502849578857,-1.89449977874756,-6.04036274297858,-57.4244261260995,24.6913677835752,1.96820867061615,-14.2232036590576,-3.74121928215027,211.736738534609,-166.511337624665,281.724184318112,2.65736794471741,-8.72313690185547,-1.48576951026917,-114.152118315344,-71.5339030644317,52.5246977174371,-0.935781419277191,-3.32075381278992,3.47060608863831,-128.931295301796,-14.1476175684312,-3.5193994710387,-1.98734891414642,-9.48366451263428,-1.33953607082367,118.307168274273,-36.4375155992656,-64.334712924509,3.04859709739685,-7.16509342193604,-9.2426815032959,-16.8408251911907,-81.13278454659,4.22181890004716,0.275244116783142,-7.56966686248779,3.84178900718689,45.774664232429,20.5854678659137,27.6325514005675,-3.22095513343811,-7.93754625320435,4.06013679504395,-2.8007905727066,-25.8864835486927,-2.80207059284575
35.625,4.64254188537598,-9.09067153930664,-1.59577059745789,-8.23443422845871,-54.9616272510276,27.8198010366634,2.61609053611755,-14.513783454895,-4.27229070663452,206.716822702216,-178.184977859674,270.93415199565,2.3953709602356,-9.06856346130371,-1.3913242816925,-109.796902832599,-67.2848970232801,50.4655630223129,-1.45870840549469,-4.08517742156982,4.0076150894165,-131.32112385087,-9.58975208055892,-7.21125566909152,-1.99585604667664,-8.85245132446289,-1.96891760826111,115.738320467053,-36.2551393031425,-65.0424571263057,3.7211287021637,-7.45316505432129,-9.98948860168457,0.181825518739771,-66.9289895260091,5.67962459441706,0.0592073611915112,-7.54192209243774,3.83221507072449,49.1497748900341,19.8824928437049,28.9448971175046,-3.36507487297058,-7.85916614532471,4.20614957809448,-1.61839848951742,-26.341218760612,-0.477475206182878
35.63,5.14089727401733,-8.74346542358398,-1.26167070865631,-11.0513451148236,-50.8566220881474,32.0552389070287,3.19393420219421,-14.5645236968994,-4.69332361221313,199.198970086567,-182.799194115746,260.395306710103,2.08909249305725,-9.45802879333496,-1.3770045042038,-105.791618431601,-61.7699973817367,48.3860572879891,-1.91394984722137,-4.87789678573608,4.53828907012939,-129.465907868512,-7.69147943944594,-10.4848714231775,-2.09191846847534,-8.31362152099609,-2.59964323043823,108.119401542255,-37.9581547651314,-64.2948519405128,4.26385879516602,-7.58412885665894,-10.6210174560547,20.3780316057258,-59.1966348194752,7.91487102153497,-0.217975035309792,-7.5214581489563,3.78192496299744,51.7734383804382,17.9931908022931,30.4673121325546,-3.51949310302734,-7.75967216491699,4.34756374359131,-0.564219729219951,-26.6504641130208,1.98484166030489
35.635,5.4665470123291,-8.513747215271,-0.903940796852112,-14.4459525474145,-46.479287037775,36.9654175051213,3.69142723083496,-14.4585790634155,-5.00383710861206,189.136694420169,-181.346699747229,249.880667614976,1.79501581192017,-9.861252784729,-1.40709316730499,-101.785090936174,-55.9248478485395,46.1724066383664,-2.27228331565857,-5.59719800949097,5.03417778015137,-125.045204532004,-6.40028212261334,-13.8594578637639,-2.29540157318115,-7.88763046264648,-3.16601753234863,97.2394566095581,-41.4125229378653,-61.9951409073479,4.48858213424683,-7.59634208679199,-11.0890264511108,39.6924661538973,-56.396216278635,10.843242057418,-0.502688765525818,-7.52316331863403,3.68882942199707,53.6622827991756,15.3482222443205,32.0271019427429,-3.66727447509766,-7.6622486114502,4.46238422393799,0.31785376532096,-27.0376999804673,4.4988240520262
35.64,5.71318578720093,-8.4567346572876,-0.530478596687317,-18.4176990120405,-42.9032561204502,42.2475921110749,4.0954418182373,-14.2525463104248,-5.19668292999268,176.33720678351,-174.246130708733,239.211010546445,1.55884432792664,-10.2549743652344,-1.45588147640228,-97.4977197224546,-50.473923173857,43.7258465380461,-2.50451731681824,-6.15763092041016,5.47050762176514,-119.23875143555,-4.11969348469031,-17.7544449549499,-2.62869334220886,-7.59766626358032,-3.61181282997131,84.3227629267419,-46.6187765760996,-57.9712920521858,4.22603416442871,-7.51306247711182,-11.3451089859009,54.8434342425351,-57.604387950351,14.4400666318973,-0.752722322940826,-7.56024408340454,3.54864501953125,54.784554596795,12.2440942193938,33.4891039345841,-3.79453277587891,-7.58547592163086,4.53147506713867,0.982350569994909,-27.6855741590943,6.99914200998266
35.645,5.83064556121826,-8.71923637390137,-0.200089171528816,-22.4486683394123,-42.0836197596704,47.415234689931,4.18351984024048,-13.7446460723877,-5.37627458572388,162.414590160491,-163.841580602647,226.93265268308,1.54579031467438,-10.6253614425659,-1.52079296112061,-91.6963209659858,-48.0928611725826,40.8617398982901,-2.87699294090271,-6.93675518035889,5.65990447998047,-116.883961756918,-2.35110137648013,-21.8591359291283,-3.14870953559875,-7.57967519760132,-3.89089035987854,75.1544360792937,-52.7936739820468,-52.5356874918116,3.23626494407654,-7.58690071105957,-11.1372871398926,61.4383029050734,-56.0733668969468,17.7785418623417,-0.945717334747314,-7.66432571411133,3.36361384391785,54.9070301338971,8.46828197639337,34.893742582681,-3.90287780761719,-7.51638650894165,4.56883811950684,1.21122786120451,-28.7720865013141,9.30017852673341
35.65,5.71911478042603,-9.0780200958252,0.0130277471616864,-26.0927757521946,-41.3574033112633,52.636419121691,4.04317045211792,-13.1464109420776,-5.55310678482056,148.42014726816,-152.830250151076,213.059964742894,1.62972617149353,-10.9427490234375,-1.56685018539429,-85.1429047215204,-48.6976300273576,38.0165221466837,-3.25197768211365,-8.05130100250244,5.60881900787354,-115.354477496077,-4.69342467921632,-25.1556123263663,-3.76047134399414,-7.74378061294556,-4.0966739654541,70.3570068289251,-58.3958292902371,-47.1648980115663,2.13460421562195,-7.78755760192871,-10.723708152771,64.5708872056297,-52.8857859131936,19.837297481967,-1.100266456604,-7.79269456863403,3.18759346008301,54.4205020989387,3.38715100045138,36.7531762068523,-3.95914268493652,-7.48023986816406,4.61037445068359,1.06365564777086,-30.1140240128302,11.5268500782352
35.655,5.45849752426147,-9.46533203125,0.117014117538929,-29.4717915704577,-40.6142855597551,57.8713663846285,3.77241063117981,-12.5126705169678,-5.75107717514038,134.998415737735,-141.841896455873,198.873593534886,1.79613173007965,-11.2100448608398,-1.59093189239502,-78.1502390115313,-52.0536707968001,35.2444181550478,-3.65485548973083,-9.48386573791504,5.42085027694702,-114.345747348125,-9.90872276857216,-26.934516312676,-4.4071044921875,-8.03520202636719,-4.24666357040405,69.6911248565514,-63.1349014043371,-42.1598105198618,0.958087742328644,-8.12074279785156,-10.1291275024414,65.6745706434229,-48.3197498115267,20.6744344949477,-1.19685709476471,-7.93765211105347,3.04416370391846,53.1611381593934,-2.4200132894505,38.8160948267767,-3.95739269256592,-7.49473524093628,4.6714916229248,0.601659144351111,-31.7664858296773,13.7158796034474
35.66,5.13771772384644,-9.79824256896973,0.113704942166805,-32.7183136716536,-39.7143637403763,63.071141588435,3.4843602180481,-11.9095792770386,-6.00183820724487,123.003251177737,-131.669490819298,185.958498116335,2.03310775756836,-11.4270420074463,-1.58742606639862,-71.0775234844698,-58.077924965508,32.61918030604,-4.11966562271118,-11.2370491027832,5.21563196182251,-113.515223665808,-16.6626340934815,-26.1878690609141,-5.01983308792114,-8.39490604400635,-4.35855388641357,73.1738929558543,-66.5797346329897,-37.9265856307876,-0.252510517835617,-8.60382652282715,-9.37072277069092,66.394219864943,-42.6186523830196,20.2689790978901,-1.20651566982269,-8.0908031463623,2.96545791625977,50.8636571829925,-8.28123895351986,40.7823935907021,-3.88570833206177,-7.58600616455078,4.77305126190186,-0.121019159344137,-33.8225913359046,15.9105141526472
35.665,5.1455249786377,-10.0740900039673,0.198787584900856,-35.5420163273744,-41.220273603297,67.6178209339941,3.1990692615509,-11.0366306304932,-6.46014738082886,110.771338600728,-122.817442711556,173.601920926595,2.23021769523621,-11.6165227890015,-1.57650423049927,-65.2294950265374,-63.7228918994159,30.6470724662256,-4.69047689437866,-13.1478223800659,5.26141309738159,-108.889648805146,-27.3738853065099,-21.6956348607765,-5.37280464172363,-8.72335243225098,-4.41787672042847,78.9014983485302,-68.0002022444881,-34.7837014049629,-1.84898340702057,-9.3643684387207,-8.72350692749023,66.0412151980692,-37.9643770674653,18.0517750423516,-1.12084901332855,-8.25938129425049,2.95354652404785,47.6950607100373,-13.8021329398336,42.4206930103051,-3.66025257110596,-7.80854892730713,4.97723722457886,-0.91426628385287,-36.0684975538827,18.1151882261533
35.67,5.16571187973022,-10.3762769699097,0.329670697450638,-37.8676479284396,-43.0888972469966,71.8997006756209,3.01610445976257,-10.1719522476196,-6.72505187988281,94.6736755572753,-109.954891938291,157.371164816976,2.38041400909424,-11.813868522644,-1.59162926673889,-59.617695491239,-68.2502008284889,28.9397369095866,-5.23401927947998,-14.8822116851807,5.60037803649902,-100.183288632401,-39.863941468105,-14.7693278536688,-5.56113815307617,-9.00957202911377,-4.44279336929321,82.6201538610086,-68.3794416679638,-32.1466131777452,-3.11166834831238,-10.0348711013794,-8.78074073791504,62.5709463449474,-36.6747895408427,14.0641449728108,-0.960811078548431,-8.4454402923584,2.99334216117859,43.951601365588,-18.9653845608271,43.6035895669975,-3.29802250862122,-8.13882541656494,5.21747016906738,-1.36284194580122,-38.222285010525,20.3077148082205
35.675,5.14098405838013,-10.6668720245361,0.450131416320801,-39.8695558836028,-44.7333745727039,76.235866760771,2.95537137985229,-9.34168529510498,-6.71413135528564,75.9801239876782,-92.7064854536632,137.95745859186,2.50421237945557,-12.0152864456177,-1.6325079202652,-53.6540251004691,-72.1843761300379,27.2430888914515,-5.67359972000122,-16.3864250183105,6.21735954284668,-88.1586927872694,-52.8000772843936,-5.95322020133979,-5.62447214126587,-9.25736808776855,-4.40704870223999,83.0608513266362,-68.3129497763938,-29.8516183902021,-3.83424377441406,-10.5215082168579,-9.40726566314697,55.5862787864765,-38.9608197051001,8.26081668790153,-0.730899453163147,-8.64245510101318,3.0757691860199,39.6129251859179,-23.7541121501931,44.2213870076143,-2.80673956871033,-8.59491443634033,5.45366954803467,-1.12886453099403,-40.2204329465501,22.4234222526927
35.68,4.99133968353271,-10.8640079498291,0.457028448581696,-41.8519124222668,-45.2332283067329,81.1957588907375,3.05697059631348,-8.56970119476318,-6.28439378738403,57.2054809971602,-70.4605115156075,116.801999486878,2.63844728469849,-12.2102937698364,-1.69777226448059,-46.2912109487896,-76.5345167822298,25.1177081915674,-5.86699199676514,-17.5694675445557,7.10844326019287,-73.9414627845912,-63.9334051598249,4.05841729632518,-5.61473798751831,-9.47105503082275,-4.25259828567505,77.9218374856861,-68.7786593947619,-27.6860864232821,-3.64468622207642,-10.6658353805542,-10.3444652557373,44.1799994763386,-45.354518806014,0.360528600492214,-0.430075198411942,-8.83899784088135,3.18970656394958,34.5466391992501,-28.0987323019884,44.0201491440982,-2.18566131591797,-9.22679042816162,5.61647748947144,0.456000344380418,-41.955871316529,24.3340122862001
35.685,4.83935546875,-10.978461265564,0.52670693397522,-43.6951414226323,-45.5962255403624,86.4934926676203,3.33921957015991,-7.76920223236084,-6.13703203201294,39.0989363754015,-47.3175527395161,93.8335964403096,2.72302317619324,-12.2711524963379,-1.83624637126923,-39.7698931783285,-79.9614207643111,22.8726386717625,-5.62970733642578,-18.3108711242676,8.02268600463867,-58.4424316709441,-69.3674558521629,13.5749821923801,-5.47192096710205,-9.63086223602295,-3.91576099395752,68.2005726739795,-72.8654416129365,-25.7238140558724,-2.25170087814331,-10.3894157409668,-10.719708442688,32.1666871037158,-51.8922939172802,-8.30668653082004,-0.0397258214652538,-9.05316829681396,3.31148242950439,28.9374556264039,-31.7879531142386,42.850516814774,-1.51382720470428,-9.95471858978271,5.70621633529663,3.79607442606005,-43.2581493346295,25.9121616448774
35.69,4.71635293960571,-11.0986404418945,0.618425250053406,-45.6004875784045,-46.1267502388594,91.5629820130089,3.60649132728577,-7.01532125473022,-6.34575605392456,20.6242838309669,-25.0383618839793,69.8087202234915,2.83132410049438,-12.309476852417,-2.0205295085907,-33.6713265514509,-82.6138974077289,20.614255405718,-5.14649057388306,-18.6478652954102,8.77287864685059,-39.8694158647248,-70.007683634014,22.4569414060445,-5.21273946762085,-9.7381010055542,-3.49080872535706,58.0777610409679,-79.5713896419467,-24.0513124640006,-0.287279069423676,-9.8944149017334,-10.8263530731201,22.3973138545903,-56.8708256334916,-16.3682751383688,0.418102949857712,-9.30393886566162,3.45090746879578,23.1580500790625,-35.1573332431301,40.9522057538469,-0.849983394145966,-10.6919574737549,5.73863077163696,8.38480425813112,-44.6011933367912,27.2896963948004
35.695,4.66036033630371,-11.2142248153687,0.688070714473724,-47.4897076575463,-46.785095097484,96.1367567190054,3.80578422546387,-6.36830949783325,-6.78381204605103,1.56172744947847,-3.35597268099416,44.9092758494938,2.97574377059937,-12.3568735122681,-2.23555779457092,-27.8824150883322,-84.3107759447485,18.3892888401878,-4.42198896408081,-18.5438346862793,9.27095222473145,-17.7839650325427,-65.6222923755156,30.4534297730665,-4.85398435592651,-9.80048942565918,-3.00627732276917,48.8802317197233,-87.8735323894214,-22.7504892761933,2.01920676231384,-9.23966407775879,-10.8063507080078,15.2686727386046,-60.0974821294865,-23.6237187162957,0.936016142368317,-9.59362125396729,3.60264110565186,17.3561936999194,-38.2687917685836,38.3830471730195,-0.214894160628319,-11.4142017364502,5.7001633644104,13.8229180592516,-46.0415470440581,28.4456871288048
